#
# Results on Sat, 02 Dec 2023 22:45:44 GMT
# USER AGENT: Mozilla/5.0 (iPhone; CPU iPhone OS 17_1_1 like Mac OS X) AppleWebKit/605.1.15 (KHTML, like Gecko) Mobile/15E148 KAKAOTALK 10.4.3
# Design number was non-random = 4
#
# Columns below this comment are as follows:
# 1. Results reception time.
# 2. MD5 hash of participant's IP address.
# 3. Controller name.
# 4. Order number of item.
# 5. Inner element number.
# 6. Label.
# 7. Latin Square Group.
# 8. PennElementName.
# 9. PennElementType.
# 10. Parameter.
# 11. Value.
# 12. EventTime.
# 13. id.
# 14. korean.
# 15. age.
# 16. Comments.
1701557144,cc419ef3be50fa98634436f8a3daf74d,PennController,1,0,consent,NULL,consent,__Trial__,__Event__,__Start__,1701555469680,undefined,undefined,undefined,NULL
1701557144,cc419ef3be50fa98634436f8a3daf74d,PennController,1,0,consent,NULL,consent,__Header__,__Event__,__Start__,1701555469680,undefined,undefined,undefined,NULL
1701557144,cc419ef3be50fa98634436f8a3daf74d,PennController,1,0,consent,NULL,consent,__Header__,__Event__,__End__,1701555469686,undefined,undefined,undefined,NULL
1701557144,cc419ef3be50fa98634436f8a3daf74d,PennController,1,0,consent,NULL,consent,__Trial__,__Event__,__End__,1701555489454,undefined,undefined,undefined,NULL
1701557144,cc419ef3be50fa98634436f8a3daf74d,PennController,3,0,participants,NULL,participants,__Trial__,__Event__,__Start__,1701555489464,undefined,undefined,undefined,NULL
1701557144,cc419ef3be50fa98634436f8a3daf74d,PennController,3,0,participants,NULL,participants,__Header__,__Event__,__Start__,1701555489464,undefined,undefined,undefined,NULL
1701557144,cc419ef3be50fa98634436f8a3daf74d,PennController,3,0,participants,NULL,participants,__Header__,__Event__,__End__,1701555489466,undefined,undefined,undefined,NULL
1701557144,cc419ef3be50fa98634436f8a3daf74d,PennController,3,0,participants,NULL,input_korean,Scale,Select,네,1701555523623,undefined,undefined,undefined,NULL
1701557144,cc419ef3be50fa98634436f8a3daf74d,PennController,3,0,participants,NULL,input_ID,TextInput,Value,Goun,1701555535479,undefined,undefined,undefined,NULL
1701557144,cc419ef3be50fa98634436f8a3daf74d,PennController,3,0,participants,NULL,input_age,TextInput,Value,30,1701555535481,undefined,undefined,undefined,NULL
1701557144,cc419ef3be50fa98634436f8a3daf74d,PennController,3,0,participants,NULL,participants,__Trial__,__Event__,__End__,1701555535481,undefined,undefined,undefined,NULL
1701557144,cc419ef3be50fa98634436f8a3daf74d,PennController,4,0,instructions,NULL,instructions,__Trial__,__Event__,__Start__,1701555535485,undefined,undefined,undefined,NULL
1701557144,cc419ef3be50fa98634436f8a3daf74d,PennController,4,0,instructions,NULL,instructions,__Header__,__Event__,__Start__,1701555535485,undefined,undefined,undefined,NULL
1701557144,cc419ef3be50fa98634436f8a3daf74d,PennController,4,0,instructions,NULL,instructions,__Header__,__Event__,__End__,1701555535487,undefined,undefined,undefined,NULL
1701557144,cc419ef3be50fa98634436f8a3daf74d,PennController,4,0,instructions,NULL,instructions,__Trial__,__Event__,__End__,1701555577593,undefined,undefined,undefined,NULL
1701557144,cc419ef3be50fa98634436f8a3daf74d,PennController,5,0,instructions1,NULL,instructions1,__Trial__,__Event__,__Start__,1701555577596,undefined,undefined,undefined,NULL
1701557144,cc419ef3be50fa98634436f8a3daf74d,PennController,5,0,instructions1,NULL,instructions1,__Header__,__Event__,__Start__,1701555577596,undefined,undefined,undefined,NULL
1701557144,cc419ef3be50fa98634436f8a3daf74d,PennController,5,0,instructions1,NULL,instructions1,__Header__,__Event__,__End__,1701555577597,undefined,undefined,undefined,NULL
1701557144,cc419ef3be50fa98634436f8a3daf74d,PennController,5,0,instructions1,NULL,instructions1,__Trial__,__Event__,__End__,1701555617466,undefined,undefined,undefined,NULL
1701557144,cc419ef3be50fa98634436f8a3daf74d,PennController,6,0,instructions2,NULL,instructions2,__Trial__,__Event__,__Start__,1701555617469,undefined,undefined,undefined,NULL
1701557144,cc419ef3be50fa98634436f8a3daf74d,PennController,6,0,instructions2,NULL,instructions2,__Header__,__Event__,__Start__,1701555617470,undefined,undefined,undefined,NULL
1701557144,cc419ef3be50fa98634436f8a3daf74d,PennController,6,0,instructions2,NULL,instructions2,__Header__,__Event__,__End__,1701555617472,undefined,undefined,undefined,NULL
1701557144,cc419ef3be50fa98634436f8a3daf74d,PennController,6,0,instructions2,NULL,instructions2,__Trial__,__Event__,__End__,1701555630188,undefined,undefined,undefined,NULL
1701557144,cc419ef3be50fa98634436f8a3daf74d,PennController,7,0,exercise,NULL,exercise,__Trial__,__Event__,__Start__,1701555630190,undefined,undefined,undefined,NULL
1701557144,cc419ef3be50fa98634436f8a3daf74d,PennController,7,0,exercise,NULL,exercise,__Header__,__Event__,__Start__,1701555630190,undefined,undefined,undefined,NULL
1701557144,cc419ef3be50fa98634436f8a3daf74d,PennController,7,0,exercise,NULL,exercise,__Header__,__Event__,__End__,1701555630192,undefined,undefined,undefined,NULL
1701557144,cc419ef3be50fa98634436f8a3daf74d,PennController,7,0,exercise,NULL,acceptability,Scale,Select,5,1701555676992,undefined,undefined,undefined,NULL
1701557144,cc419ef3be50fa98634436f8a3daf74d,PennController,7,0,exercise,NULL,continue,Button,Click,Click,1701555705135,undefined,undefined,undefined,NULL
1701557144,cc419ef3be50fa98634436f8a3daf74d,PennController,7,0,exercise,NULL,exercise,__Trial__,__Event__,__End__,1701555705140,undefined,undefined,undefined,NULL
1701557144,cc419ef3be50fa98634436f8a3daf74d,PennController,9,0,exercise,NULL,exercise,__Trial__,__Event__,__Start__,1701555705143,undefined,undefined,undefined,NULL
1701557144,cc419ef3be50fa98634436f8a3daf74d,PennController,9,0,exercise,NULL,exercise,__Header__,__Event__,__Start__,1701555705143,undefined,undefined,undefined,NULL
1701557144,cc419ef3be50fa98634436f8a3daf74d,PennController,9,0,exercise,NULL,exercise,__Header__,__Event__,__End__,1701555705145,undefined,undefined,undefined,NULL
1701557144,cc419ef3be50fa98634436f8a3daf74d,PennController,9,0,exercise,NULL,acceptability,Scale,Select,1,1701555741987,undefined,undefined,undefined,NULL
1701557144,cc419ef3be50fa98634436f8a3daf74d,PennController,9,0,exercise,NULL,continue,Button,Click,Click,1701555747780,undefined,undefined,undefined,NULL
1701557144,cc419ef3be50fa98634436f8a3daf74d,PennController,9,0,exercise,NULL,exercise,__Trial__,__Event__,__End__,1701555747783,undefined,undefined,undefined,NULL
1701557144,cc419ef3be50fa98634436f8a3daf74d,PennController,8,0,exercise,NULL,exercise,__Trial__,__Event__,__Start__,1701555747787,undefined,undefined,undefined,NULL
1701557144,cc419ef3be50fa98634436f8a3daf74d,PennController,8,0,exercise,NULL,exercise,__Header__,__Event__,__Start__,1701555747787,undefined,undefined,undefined,NULL
1701557144,cc419ef3be50fa98634436f8a3daf74d,PennController,8,0,exercise,NULL,exercise,__Header__,__Event__,__End__,1701555747789,undefined,undefined,undefined,NULL
1701557144,cc419ef3be50fa98634436f8a3daf74d,PennController,8,0,exercise,NULL,acceptability,Scale,Select,1,1701555762233,undefined,undefined,undefined,NULL
1701557144,cc419ef3be50fa98634436f8a3daf74d,PennController,8,0,exercise,NULL,continue,Button,Click,Click,1701555768959,undefined,undefined,undefined,NULL
1701557144,cc419ef3be50fa98634436f8a3daf74d,PennController,8,0,exercise,NULL,exercise,__Trial__,__Event__,__End__,1701555768961,undefined,undefined,undefined,NULL
1701557144,cc419ef3be50fa98634436f8a3daf74d,PennController,10,0,start_experiment,NULL,start_experiment,__Trial__,__Event__,__Start__,1701555768964,undefined,undefined,undefined,NULL
1701557144,cc419ef3be50fa98634436f8a3daf74d,PennController,10,0,start_experiment,NULL,start_experiment,__Header__,__Event__,__Start__,1701555768964,undefined,undefined,undefined,NULL
1701557144,cc419ef3be50fa98634436f8a3daf74d,PennController,10,0,start_experiment,NULL,start_experiment,__Header__,__Event__,__End__,1701555768966,undefined,undefined,undefined,NULL
1701557144,cc419ef3be50fa98634436f8a3daf74d,PennController,10,0,start_experiment,NULL,start_experiment,__Trial__,__Event__,__End__,1701555771262,undefined,undefined,undefined,NULL
# 16. filler_number.
# 17. filler_sentence.
# 18. filler_felicitous.
# 19. Comments.
1701557144,cc419ef3be50fa98634436f8a3daf74d,PennController,77,0,filler,NULL,filler,__Trial__,__Event__,__Start__,1701555771264,undefined,undefined,undefined,43,사진관에서 가족 사진을 찍었다. 그 사진은 런던에서 찍은 것이다.,n,NULL
1701557144,cc419ef3be50fa98634436f8a3daf74d,PennController,77,0,filler,NULL,filler,__Header__,__Event__,__Start__,1701555771264,undefined,undefined,undefined,43,사진관에서 가족 사진을 찍었다. 그 사진은 런던에서 찍은 것이다.,n,NULL
1701557144,cc419ef3be50fa98634436f8a3daf74d,PennController,77,0,filler,NULL,filler,__Header__,__Event__,__End__,1701555771265,undefined,undefined,undefined,43,사진관에서 가족 사진을 찍었다. 그 사진은 런던에서 찍은 것이다.,n,NULL
1701557144,cc419ef3be50fa98634436f8a3daf74d,PennController,77,0,filler,NULL,acceptability,Scale,Select,2,1701555807368,undefined,undefined,undefined,43,사진관에서 가족 사진을 찍었다. 그 사진은 런던에서 찍은 것이다.,n,NULL
1701557144,cc419ef3be50fa98634436f8a3daf74d,PennController,77,0,filler,NULL,continue,Button,Click,Click,1701555849213,undefined,undefined,undefined,43,사진관에서 가족 사진을 찍었다. 그 사진은 런던에서 찍은 것이다.,n,NULL
1701557144,cc419ef3be50fa98634436f8a3daf74d,PennController,77,0,filler,NULL,filler,__Trial__,__Event__,__End__,1701555849216,undefined,undefined,undefined,43,사진관에서 가족 사진을 찍었다. 그 사진은 런던에서 찍은 것이다.,n,NULL
1701557144,cc419ef3be50fa98634436f8a3daf74d,PennController,58,0,filler,NULL,filler,__Trial__,__Event__,__Start__,1701555849219,undefined,undefined,undefined,24,공연장에서 연기자들이 열심히 연기했다. 그 연기자들은 모두 유명해지고 싶어한다.,y,NULL
1701557144,cc419ef3be50fa98634436f8a3daf74d,PennController,58,0,filler,NULL,filler,__Header__,__Event__,__Start__,1701555849219,undefined,undefined,undefined,24,공연장에서 연기자들이 열심히 연기했다. 그 연기자들은 모두 유명해지고 싶어한다.,y,NULL
1701557144,cc419ef3be50fa98634436f8a3daf74d,PennController,58,0,filler,NULL,filler,__Header__,__Event__,__End__,1701555849222,undefined,undefined,undefined,24,공연장에서 연기자들이 열심히 연기했다. 그 연기자들은 모두 유명해지고 싶어한다.,y,NULL
1701557144,cc419ef3be50fa98634436f8a3daf74d,PennController,58,0,filler,NULL,acceptability,Scale,Select,7,1701555883049,undefined,undefined,undefined,24,공연장에서 연기자들이 열심히 연기했다. 그 연기자들은 모두 유명해지고 싶어한다.,y,NULL
1701557144,cc419ef3be50fa98634436f8a3daf74d,PennController,58,0,filler,NULL,continue,Button,Click,Click,1701555884301,undefined,undefined,undefined,24,공연장에서 연기자들이 열심히 연기했다. 그 연기자들은 모두 유명해지고 싶어한다.,y,NULL
1701557144,cc419ef3be50fa98634436f8a3daf74d,PennController,58,0,filler,NULL,filler,__Trial__,__Event__,__End__,1701555884304,undefined,undefined,undefined,24,공연장에서 연기자들이 열심히 연기했다. 그 연기자들은 모두 유명해지고 싶어한다.,y,NULL
# 16. target_group.
# 17. target_set.
# 18. target_condition.
# 19. target_sentence.
# 20. target_word_order.
# 21. target_interpretation.
# 22. target_existential.
# 23. Comments.
1701557144,cc419ef3be50fa98634436f8a3daf74d,PennController,20,0,experiment,NULL,experiment,__Trial__,__Event__,__Start__,1701555884308,undefined,undefined,undefined,1,10,exi-uni_inv,연습실에서 어떤 발레리나가 모든 발레리노를 놀렸다. 그 발레리나들은 짖궃은 장난을 좋아한다.,exi-uni,inverse,etten,NULL
1701557144,cc419ef3be50fa98634436f8a3daf74d,PennController,20,0,experiment,NULL,experiment,__Header__,__Event__,__Start__,1701555884308,undefined,undefined,undefined,1,10,exi-uni_inv,연습실에서 어떤 발레리나가 모든 발레리노를 놀렸다. 그 발레리나들은 짖궃은 장난을 좋아한다.,exi-uni,inverse,etten,NULL
1701557144,cc419ef3be50fa98634436f8a3daf74d,PennController,20,0,experiment,NULL,experiment,__Header__,__Event__,__End__,1701555884311,undefined,undefined,undefined,1,10,exi-uni_inv,연습실에서 어떤 발레리나가 모든 발레리노를 놀렸다. 그 발레리나들은 짖궃은 장난을 좋아한다.,exi-uni,inverse,etten,NULL
1701557144,cc419ef3be50fa98634436f8a3daf74d,PennController,20,0,experiment,NULL,acceptability,Scale,Select,5,1701555904028,undefined,undefined,undefined,1,10,exi-uni_inv,연습실에서 어떤 발레리나가 모든 발레리노를 놀렸다. 그 발레리나들은 짖궃은 장난을 좋아한다.,exi-uni,inverse,etten,NULL
1701557144,cc419ef3be50fa98634436f8a3daf74d,PennController,20,0,experiment,NULL,continue,Button,Click,Click,1701555919045,undefined,undefined,undefined,1,10,exi-uni_inv,연습실에서 어떤 발레리나가 모든 발레리노를 놀렸다. 그 발레리나들은 짖궃은 장난을 좋아한다.,exi-uni,inverse,etten,NULL
1701557144,cc419ef3be50fa98634436f8a3daf74d,PennController,20,0,experiment,NULL,experiment,__Trial__,__Event__,__End__,1701555919047,undefined,undefined,undefined,1,10,exi-uni_inv,연습실에서 어떤 발레리나가 모든 발레리노를 놀렸다. 그 발레리나들은 짖궃은 장난을 좋아한다.,exi-uni,inverse,etten,NULL
# 16. filler_number.
# 17. filler_sentence.
# 18. filler_felicitous.
# 19. Comments.
1701557144,cc419ef3be50fa98634436f8a3daf74d,PennController,51,0,filler,NULL,filler,__Trial__,__Event__,__Start__,1701555919049,undefined,undefined,undefined,17,바에서 바텐더가 칵테일을 만들었다. 그 칵테일은 오렌지 향이 났다.,y,NULL
1701557144,cc419ef3be50fa98634436f8a3daf74d,PennController,51,0,filler,NULL,filler,__Header__,__Event__,__Start__,1701555919049,undefined,undefined,undefined,17,바에서 바텐더가 칵테일을 만들었다. 그 칵테일은 오렌지 향이 났다.,y,NULL
1701557144,cc419ef3be50fa98634436f8a3daf74d,PennController,51,0,filler,NULL,filler,__Header__,__Event__,__End__,1701555919050,undefined,undefined,undefined,17,바에서 바텐더가 칵테일을 만들었다. 그 칵테일은 오렌지 향이 났다.,y,NULL
1701557144,cc419ef3be50fa98634436f8a3daf74d,PennController,51,0,filler,NULL,acceptability,Scale,Select,7,1701555925612,undefined,undefined,undefined,17,바에서 바텐더가 칵테일을 만들었다. 그 칵테일은 오렌지 향이 났다.,y,NULL
1701557144,cc419ef3be50fa98634436f8a3daf74d,PennController,51,0,filler,NULL,continue,Button,Click,Click,1701555928432,undefined,undefined,undefined,17,바에서 바텐더가 칵테일을 만들었다. 그 칵테일은 오렌지 향이 났다.,y,NULL
1701557144,cc419ef3be50fa98634436f8a3daf74d,PennController,51,0,filler,NULL,filler,__Trial__,__Event__,__End__,1701555928434,undefined,undefined,undefined,17,바에서 바텐더가 칵테일을 만들었다. 그 칵테일은 오렌지 향이 났다.,y,NULL
1701557144,cc419ef3be50fa98634436f8a3daf74d,PennController,56,0,filler,NULL,filler,__Trial__,__Event__,__Start__,1701555928436,undefined,undefined,undefined,22,오대산에 반달 가슴 곰이 나타났다. 그 곰은 일년 전 자연으로 방생된 곰이다.,y,NULL
1701557144,cc419ef3be50fa98634436f8a3daf74d,PennController,56,0,filler,NULL,filler,__Header__,__Event__,__Start__,1701555928436,undefined,undefined,undefined,22,오대산에 반달 가슴 곰이 나타났다. 그 곰은 일년 전 자연으로 방생된 곰이다.,y,NULL
1701557144,cc419ef3be50fa98634436f8a3daf74d,PennController,56,0,filler,NULL,filler,__Header__,__Event__,__End__,1701555928439,undefined,undefined,undefined,22,오대산에 반달 가슴 곰이 나타났다. 그 곰은 일년 전 자연으로 방생된 곰이다.,y,NULL
1701557144,cc419ef3be50fa98634436f8a3daf74d,PennController,56,0,filler,NULL,acceptability,Scale,Select,6,1701555972243,undefined,undefined,undefined,22,오대산에 반달 가슴 곰이 나타났다. 그 곰은 일년 전 자연으로 방생된 곰이다.,y,NULL
1701557144,cc419ef3be50fa98634436f8a3daf74d,PennController,56,0,filler,NULL,continue,Button,Click,Click,1701555974696,undefined,undefined,undefined,22,오대산에 반달 가슴 곰이 나타났다. 그 곰은 일년 전 자연으로 방생된 곰이다.,y,NULL
1701557144,cc419ef3be50fa98634436f8a3daf74d,PennController,56,0,filler,NULL,filler,__Trial__,__Event__,__End__,1701555974699,undefined,undefined,undefined,22,오대산에 반달 가슴 곰이 나타났다. 그 곰은 일년 전 자연으로 방생된 곰이다.,y,NULL
# 16. target_group.
# 17. target_set.
# 18. target_condition.
# 19. target_sentence.
# 20. target_word_order.
# 21. target_interpretation.
# 22. target_existential.
# 23. Comments.
1701557144,cc419ef3be50fa98634436f8a3daf74d,PennController,18,0,experiment,NULL,experiment,__Trial__,__Event__,__Start__,1701555974702,undefined,undefined,undefined,1,8,uni-exi_inv,키즈카페에서 모든 부모가 어떤 아이를 때렸다. 그 아이는 울음을 터뜨렸다.,uni-exi,inverse,etten,NULL
1701557144,cc419ef3be50fa98634436f8a3daf74d,PennController,18,0,experiment,NULL,experiment,__Header__,__Event__,__Start__,1701555974702,undefined,undefined,undefined,1,8,uni-exi_inv,키즈카페에서 모든 부모가 어떤 아이를 때렸다. 그 아이는 울음을 터뜨렸다.,uni-exi,inverse,etten,NULL
1701557144,cc419ef3be50fa98634436f8a3daf74d,PennController,18,0,experiment,NULL,experiment,__Header__,__Event__,__End__,1701555974704,undefined,undefined,undefined,1,8,uni-exi_inv,키즈카페에서 모든 부모가 어떤 아이를 때렸다. 그 아이는 울음을 터뜨렸다.,uni-exi,inverse,etten,NULL
1701557144,cc419ef3be50fa98634436f8a3daf74d,PennController,18,0,experiment,NULL,acceptability,Scale,Select,6,1701556011707,undefined,undefined,undefined,1,8,uni-exi_inv,키즈카페에서 모든 부모가 어떤 아이를 때렸다. 그 아이는 울음을 터뜨렸다.,uni-exi,inverse,etten,NULL
1701557144,cc419ef3be50fa98634436f8a3daf74d,PennController,18,0,experiment,NULL,continue,Button,Click,Click,1701556012558,undefined,undefined,undefined,1,8,uni-exi_inv,키즈카페에서 모든 부모가 어떤 아이를 때렸다. 그 아이는 울음을 터뜨렸다.,uni-exi,inverse,etten,NULL
1701557144,cc419ef3be50fa98634436f8a3daf74d,PennController,18,0,experiment,NULL,experiment,__Trial__,__Event__,__End__,1701556012561,undefined,undefined,undefined,1,8,uni-exi_inv,키즈카페에서 모든 부모가 어떤 아이를 때렸다. 그 아이는 울음을 터뜨렸다.,uni-exi,inverse,etten,NULL
# 16. filler_number.
# 17. filler_sentence.
# 18. filler_felicitous.
# 19. Comments.
1701557144,cc419ef3be50fa98634436f8a3daf74d,PennController,38,0,filler,NULL,filler,__Trial__,__Event__,__Start__,1701556012564,undefined,undefined,undefined,4,어젯밤에 철수가 공포 영화를 보았다. 그는 그래서인지 악몽을 꾸었다.,y,NULL
1701557144,cc419ef3be50fa98634436f8a3daf74d,PennController,38,0,filler,NULL,filler,__Header__,__Event__,__Start__,1701556012564,undefined,undefined,undefined,4,어젯밤에 철수가 공포 영화를 보았다. 그는 그래서인지 악몽을 꾸었다.,y,NULL
1701557144,cc419ef3be50fa98634436f8a3daf74d,PennController,38,0,filler,NULL,filler,__Header__,__Event__,__End__,1701556012565,undefined,undefined,undefined,4,어젯밤에 철수가 공포 영화를 보았다. 그는 그래서인지 악몽을 꾸었다.,y,NULL
1701557144,cc419ef3be50fa98634436f8a3daf74d,PennController,38,0,filler,NULL,acceptability,Scale,Select,6,1701556025059,undefined,undefined,undefined,4,어젯밤에 철수가 공포 영화를 보았다. 그는 그래서인지 악몽을 꾸었다.,y,NULL
1701557144,cc419ef3be50fa98634436f8a3daf74d,PennController,38,0,filler,NULL,continue,Button,Click,Click,1701556035734,undefined,undefined,undefined,4,어젯밤에 철수가 공포 영화를 보았다. 그는 그래서인지 악몽을 꾸었다.,y,NULL
1701557144,cc419ef3be50fa98634436f8a3daf74d,PennController,38,0,filler,NULL,filler,__Trial__,__Event__,__End__,1701556035736,undefined,undefined,undefined,4,어젯밤에 철수가 공포 영화를 보았다. 그는 그래서인지 악몽을 꾸었다.,y,NULL
1701557144,cc419ef3be50fa98634436f8a3daf74d,PennController,35,0,filler,NULL,filler,__Trial__,__Event__,__Start__,1701556035738,undefined,undefined,undefined,1,월요일에 교장 선생님이 훈화 말씀을 했다. 그 훈화말씀은 정말 지루했다. ,y,NULL
1701557144,cc419ef3be50fa98634436f8a3daf74d,PennController,35,0,filler,NULL,filler,__Header__,__Event__,__Start__,1701556035739,undefined,undefined,undefined,1,월요일에 교장 선생님이 훈화 말씀을 했다. 그 훈화말씀은 정말 지루했다. ,y,NULL
1701557144,cc419ef3be50fa98634436f8a3daf74d,PennController,35,0,filler,NULL,filler,__Header__,__Event__,__End__,1701556035741,undefined,undefined,undefined,1,월요일에 교장 선생님이 훈화 말씀을 했다. 그 훈화말씀은 정말 지루했다. ,y,NULL
1701557144,cc419ef3be50fa98634436f8a3daf74d,PennController,35,0,filler,NULL,acceptability,Scale,Select,7,1701556040479,undefined,undefined,undefined,1,월요일에 교장 선생님이 훈화 말씀을 했다. 그 훈화말씀은 정말 지루했다. ,y,NULL
1701557144,cc419ef3be50fa98634436f8a3daf74d,PennController,35,0,filler,NULL,continue,Button,Click,Click,1701556043215,undefined,undefined,undefined,1,월요일에 교장 선생님이 훈화 말씀을 했다. 그 훈화말씀은 정말 지루했다. ,y,NULL
1701557144,cc419ef3be50fa98634436f8a3daf74d,PennController,35,0,filler,NULL,filler,__Trial__,__Event__,__End__,1701556043218,undefined,undefined,undefined,1,월요일에 교장 선생님이 훈화 말씀을 했다. 그 훈화말씀은 정말 지루했다. ,y,NULL
# 16. target_group.
# 17. target_set.
# 18. target_condition.
# 19. target_sentence.
# 20. target_word_order.
# 21. target_interpretation.
# 22. target_existential.
# 23. Comments.
1701557144,cc419ef3be50fa98634436f8a3daf74d,PennController,30,0,experiment,NULL,experiment,__Trial__,__Event__,__Start__,1701556043220,undefined,undefined,undefined,1,20,uni-exi_inv,지리산에서 모든 멧돼지가 누군가를 추격했다. 그 사람은 베테랑 밀렵꾼이었기 때문에 잡히지 않았다.,uni-exi,inverse,nwukwunka,NULL
1701557144,cc419ef3be50fa98634436f8a3daf74d,PennController,30,0,experiment,NULL,experiment,__Header__,__Event__,__Start__,1701556043221,undefined,undefined,undefined,1,20,uni-exi_inv,지리산에서 모든 멧돼지가 누군가를 추격했다. 그 사람은 베테랑 밀렵꾼이었기 때문에 잡히지 않았다.,uni-exi,inverse,nwukwunka,NULL
1701557144,cc419ef3be50fa98634436f8a3daf74d,PennController,30,0,experiment,NULL,experiment,__Header__,__Event__,__End__,1701556043223,undefined,undefined,undefined,1,20,uni-exi_inv,지리산에서 모든 멧돼지가 누군가를 추격했다. 그 사람은 베테랑 밀렵꾼이었기 때문에 잡히지 않았다.,uni-exi,inverse,nwukwunka,NULL
1701557144,cc419ef3be50fa98634436f8a3daf74d,PennController,30,0,experiment,NULL,acceptability,Scale,Select,7,1701556063085,undefined,undefined,undefined,1,20,uni-exi_inv,지리산에서 모든 멧돼지가 누군가를 추격했다. 그 사람은 베테랑 밀렵꾼이었기 때문에 잡히지 않았다.,uni-exi,inverse,nwukwunka,NULL
1701557144,cc419ef3be50fa98634436f8a3daf74d,PennController,30,0,experiment,NULL,continue,Button,Click,Click,1701556064086,undefined,undefined,undefined,1,20,uni-exi_inv,지리산에서 모든 멧돼지가 누군가를 추격했다. 그 사람은 베테랑 밀렵꾼이었기 때문에 잡히지 않았다.,uni-exi,inverse,nwukwunka,NULL
1701557144,cc419ef3be50fa98634436f8a3daf74d,PennController,30,0,experiment,NULL,experiment,__Trial__,__Event__,__End__,1701556064088,undefined,undefined,undefined,1,20,uni-exi_inv,지리산에서 모든 멧돼지가 누군가를 추격했다. 그 사람은 베테랑 밀렵꾼이었기 때문에 잡히지 않았다.,uni-exi,inverse,nwukwunka,NULL
# 16. filler_number.
# 17. filler_sentence.
# 18. filler_felicitous.
# 19. Comments.
1701557144,cc419ef3be50fa98634436f8a3daf74d,PennController,40,0,filler,NULL,filler,__Trial__,__Event__,__Start__,1701556064090,undefined,undefined,undefined,6,강남역에서 노숙자가 음식을 구걸했다. 그에게 빵과 우유를 사다 주었다. ,y,NULL
1701557144,cc419ef3be50fa98634436f8a3daf74d,PennController,40,0,filler,NULL,filler,__Header__,__Event__,__Start__,1701556064090,undefined,undefined,undefined,6,강남역에서 노숙자가 음식을 구걸했다. 그에게 빵과 우유를 사다 주었다. ,y,NULL
1701557144,cc419ef3be50fa98634436f8a3daf74d,PennController,40,0,filler,NULL,filler,__Header__,__Event__,__End__,1701556064092,undefined,undefined,undefined,6,강남역에서 노숙자가 음식을 구걸했다. 그에게 빵과 우유를 사다 주었다. ,y,NULL
1701557144,cc419ef3be50fa98634436f8a3daf74d,PennController,40,0,filler,NULL,acceptability,Scale,Select,2,1701556117288,undefined,undefined,undefined,6,강남역에서 노숙자가 음식을 구걸했다. 그에게 빵과 우유를 사다 주었다. ,y,NULL
1701557144,cc419ef3be50fa98634436f8a3daf74d,PennController,40,0,filler,NULL,continue,Button,Click,Click,1701556118757,undefined,undefined,undefined,6,강남역에서 노숙자가 음식을 구걸했다. 그에게 빵과 우유를 사다 주었다. ,y,NULL
1701557144,cc419ef3be50fa98634436f8a3daf74d,PennController,40,0,filler,NULL,filler,__Trial__,__Event__,__End__,1701556118760,undefined,undefined,undefined,6,강남역에서 노숙자가 음식을 구걸했다. 그에게 빵과 우유를 사다 주었다. ,y,NULL
1701557144,cc419ef3be50fa98634436f8a3daf74d,PennController,74,0,filler,NULL,filler,__Trial__,__Event__,__Start__,1701556118762,undefined,undefined,undefined,40,바다에서 연인들이 스쿠버 다이빙을 했다. 그 수영장은 수심이 깊어 연습에 적합했다.,n,NULL
1701557144,cc419ef3be50fa98634436f8a3daf74d,PennController,74,0,filler,NULL,filler,__Header__,__Event__,__Start__,1701556118762,undefined,undefined,undefined,40,바다에서 연인들이 스쿠버 다이빙을 했다. 그 수영장은 수심이 깊어 연습에 적합했다.,n,NULL
1701557144,cc419ef3be50fa98634436f8a3daf74d,PennController,74,0,filler,NULL,filler,__Header__,__Event__,__End__,1701556118764,undefined,undefined,undefined,40,바다에서 연인들이 스쿠버 다이빙을 했다. 그 수영장은 수심이 깊어 연습에 적합했다.,n,NULL
1701557144,cc419ef3be50fa98634436f8a3daf74d,PennController,74,0,filler,NULL,acceptability,Scale,Select,1,1701556126350,undefined,undefined,undefined,40,바다에서 연인들이 스쿠버 다이빙을 했다. 그 수영장은 수심이 깊어 연습에 적합했다.,n,NULL
1701557144,cc419ef3be50fa98634436f8a3daf74d,PennController,74,0,filler,NULL,continue,Button,Click,Click,1701556131695,undefined,undefined,undefined,40,바다에서 연인들이 스쿠버 다이빙을 했다. 그 수영장은 수심이 깊어 연습에 적합했다.,n,NULL
1701557144,cc419ef3be50fa98634436f8a3daf74d,PennController,74,0,filler,NULL,filler,__Trial__,__Event__,__End__,1701556131697,undefined,undefined,undefined,40,바다에서 연인들이 스쿠버 다이빙을 했다. 그 수영장은 수심이 깊어 연습에 적합했다.,n,NULL
# 16. target_group.
# 17. target_set.
# 18. target_condition.
# 19. target_sentence.
# 20. target_word_order.
# 21. target_interpretation.
# 22. target_existential.
# 23. Comments.
1701557144,cc419ef3be50fa98634436f8a3daf74d,PennController,14,0,experiment,NULL,experiment,__Trial__,__Event__,__Start__,1701556131700,undefined,undefined,undefined,1,4,uni-exi_inv,화실에서 모든 화가가 어떤 모델을 그렸다. 그 모델은 한 시간동안 같은 자세로 서 있었다.,uni-exi,inverse,etten,NULL
1701557144,cc419ef3be50fa98634436f8a3daf74d,PennController,14,0,experiment,NULL,experiment,__Header__,__Event__,__Start__,1701556131700,undefined,undefined,undefined,1,4,uni-exi_inv,화실에서 모든 화가가 어떤 모델을 그렸다. 그 모델은 한 시간동안 같은 자세로 서 있었다.,uni-exi,inverse,etten,NULL
1701557144,cc419ef3be50fa98634436f8a3daf74d,PennController,14,0,experiment,NULL,experiment,__Header__,__Event__,__End__,1701556131702,undefined,undefined,undefined,1,4,uni-exi_inv,화실에서 모든 화가가 어떤 모델을 그렸다. 그 모델은 한 시간동안 같은 자세로 서 있었다.,uni-exi,inverse,etten,NULL
1701557144,cc419ef3be50fa98634436f8a3daf74d,PennController,14,0,experiment,NULL,acceptability,Scale,Select,7,1701556144314,undefined,undefined,undefined,1,4,uni-exi_inv,화실에서 모든 화가가 어떤 모델을 그렸다. 그 모델은 한 시간동안 같은 자세로 서 있었다.,uni-exi,inverse,etten,NULL
1701557144,cc419ef3be50fa98634436f8a3daf74d,PennController,14,0,experiment,NULL,continue,Button,Click,Click,1701556146832,undefined,undefined,undefined,1,4,uni-exi_inv,화실에서 모든 화가가 어떤 모델을 그렸다. 그 모델은 한 시간동안 같은 자세로 서 있었다.,uni-exi,inverse,etten,NULL
1701557144,cc419ef3be50fa98634436f8a3daf74d,PennController,14,0,experiment,NULL,experiment,__Trial__,__Event__,__End__,1701556146834,undefined,undefined,undefined,1,4,uni-exi_inv,화실에서 모든 화가가 어떤 모델을 그렸다. 그 모델은 한 시간동안 같은 자세로 서 있었다.,uni-exi,inverse,etten,NULL
# 16. filler_number.
# 17. filler_sentence.
# 18. filler_felicitous.
# 19. Comments.
1701557144,cc419ef3be50fa98634436f8a3daf74d,PennController,81,0,filler,NULL,filler,__Trial__,__Event__,__Start__,1701556146836,undefined,undefined,undefined,47,바구니에서 사탕을 꺼내먹었다. 그 초콜렛은 내가 생일 선물로 받은 것이다. ,n,NULL
1701557144,cc419ef3be50fa98634436f8a3daf74d,PennController,81,0,filler,NULL,filler,__Header__,__Event__,__Start__,1701556146836,undefined,undefined,undefined,47,바구니에서 사탕을 꺼내먹었다. 그 초콜렛은 내가 생일 선물로 받은 것이다. ,n,NULL
1701557144,cc419ef3be50fa98634436f8a3daf74d,PennController,81,0,filler,NULL,filler,__Header__,__Event__,__End__,1701556146838,undefined,undefined,undefined,47,바구니에서 사탕을 꺼내먹었다. 그 초콜렛은 내가 생일 선물로 받은 것이다. ,n,NULL
1701557144,cc419ef3be50fa98634436f8a3daf74d,PennController,81,0,filler,NULL,acceptability,Scale,Select,1,1701556152264,undefined,undefined,undefined,47,바구니에서 사탕을 꺼내먹었다. 그 초콜렛은 내가 생일 선물로 받은 것이다. ,n,NULL
1701557144,cc419ef3be50fa98634436f8a3daf74d,PennController,81,0,filler,NULL,continue,Button,Click,Click,1701556153117,undefined,undefined,undefined,47,바구니에서 사탕을 꺼내먹었다. 그 초콜렛은 내가 생일 선물로 받은 것이다. ,n,NULL
1701557144,cc419ef3be50fa98634436f8a3daf74d,PennController,81,0,filler,NULL,filler,__Trial__,__Event__,__End__,1701556153118,undefined,undefined,undefined,47,바구니에서 사탕을 꺼내먹었다. 그 초콜렛은 내가 생일 선물로 받은 것이다. ,n,NULL
1701557144,cc419ef3be50fa98634436f8a3daf74d,PennController,60,0,filler,NULL,filler,__Trial__,__Event__,__Start__,1701556153120,undefined,undefined,undefined,26,음악회에서 연주된 곡이 매우 감동적이었다. 그 그림은 모네의 초기 작품이었다.,n,NULL
1701557144,cc419ef3be50fa98634436f8a3daf74d,PennController,60,0,filler,NULL,filler,__Header__,__Event__,__Start__,1701556153120,undefined,undefined,undefined,26,음악회에서 연주된 곡이 매우 감동적이었다. 그 그림은 모네의 초기 작품이었다.,n,NULL
1701557144,cc419ef3be50fa98634436f8a3daf74d,PennController,60,0,filler,NULL,filler,__Header__,__Event__,__End__,1701556153121,undefined,undefined,undefined,26,음악회에서 연주된 곡이 매우 감동적이었다. 그 그림은 모네의 초기 작품이었다.,n,NULL
1701557144,cc419ef3be50fa98634436f8a3daf74d,PennController,60,0,filler,NULL,acceptability,Scale,Select,1,1701556160824,undefined,undefined,undefined,26,음악회에서 연주된 곡이 매우 감동적이었다. 그 그림은 모네의 초기 작품이었다.,n,NULL
1701557144,cc419ef3be50fa98634436f8a3daf74d,PennController,60,0,filler,NULL,continue,Button,Click,Click,1701556161911,undefined,undefined,undefined,26,음악회에서 연주된 곡이 매우 감동적이었다. 그 그림은 모네의 초기 작품이었다.,n,NULL
1701557144,cc419ef3be50fa98634436f8a3daf74d,PennController,60,0,filler,NULL,filler,__Trial__,__Event__,__End__,1701556161912,undefined,undefined,undefined,26,음악회에서 연주된 곡이 매우 감동적이었다. 그 그림은 모네의 초기 작품이었다.,n,NULL
# 16. target_group.
# 17. target_set.
# 18. target_condition.
# 19. target_sentence.
# 20. target_word_order.
# 21. target_interpretation.
# 22. target_existential.
# 23. Comments.
1701557144,cc419ef3be50fa98634436f8a3daf74d,PennController,24,0,experiment,NULL,experiment,__Trial__,__Event__,__Start__,1701556161913,undefined,undefined,undefined,1,14,exi-uni_inv,공원에서 누군가가 모든 다람쥐를 쫓아갔다. 그 사람들은 다람쥐의 속도를 따라잡지 못했다.,exi-uni,inverse,nwukwunka,NULL
1701557144,cc419ef3be50fa98634436f8a3daf74d,PennController,24,0,experiment,NULL,experiment,__Header__,__Event__,__Start__,1701556161914,undefined,undefined,undefined,1,14,exi-uni_inv,공원에서 누군가가 모든 다람쥐를 쫓아갔다. 그 사람들은 다람쥐의 속도를 따라잡지 못했다.,exi-uni,inverse,nwukwunka,NULL
1701557144,cc419ef3be50fa98634436f8a3daf74d,PennController,24,0,experiment,NULL,experiment,__Header__,__Event__,__End__,1701556161915,undefined,undefined,undefined,1,14,exi-uni_inv,공원에서 누군가가 모든 다람쥐를 쫓아갔다. 그 사람들은 다람쥐의 속도를 따라잡지 못했다.,exi-uni,inverse,nwukwunka,NULL
1701557144,cc419ef3be50fa98634436f8a3daf74d,PennController,24,0,experiment,NULL,acceptability,Scale,Select,1,1701556187534,undefined,undefined,undefined,1,14,exi-uni_inv,공원에서 누군가가 모든 다람쥐를 쫓아갔다. 그 사람들은 다람쥐의 속도를 따라잡지 못했다.,exi-uni,inverse,nwukwunka,NULL
1701557144,cc419ef3be50fa98634436f8a3daf74d,PennController,24,0,experiment,NULL,continue,Button,Click,Click,1701556188685,undefined,undefined,undefined,1,14,exi-uni_inv,공원에서 누군가가 모든 다람쥐를 쫓아갔다. 그 사람들은 다람쥐의 속도를 따라잡지 못했다.,exi-uni,inverse,nwukwunka,NULL
1701557144,cc419ef3be50fa98634436f8a3daf74d,PennController,24,0,experiment,NULL,experiment,__Trial__,__Event__,__End__,1701556188687,undefined,undefined,undefined,1,14,exi-uni_inv,공원에서 누군가가 모든 다람쥐를 쫓아갔다. 그 사람들은 다람쥐의 속도를 따라잡지 못했다.,exi-uni,inverse,nwukwunka,NULL
# 16. filler_number.
# 17. filler_sentence.
# 18. filler_felicitous.
# 19. Comments.
1701557144,cc419ef3be50fa98634436f8a3daf74d,PennController,54,0,filler,NULL,filler,__Trial__,__Event__,__Start__,1701556188689,undefined,undefined,undefined,20,포르투갈에서 친구가 선물을 보내왔다.  그 선물은 내가 정말 갖고 싶어하던 것이었다.,y,NULL
1701557144,cc419ef3be50fa98634436f8a3daf74d,PennController,54,0,filler,NULL,filler,__Header__,__Event__,__Start__,1701556188689,undefined,undefined,undefined,20,포르투갈에서 친구가 선물을 보내왔다.  그 선물은 내가 정말 갖고 싶어하던 것이었다.,y,NULL
1701557144,cc419ef3be50fa98634436f8a3daf74d,PennController,54,0,filler,NULL,filler,__Header__,__Event__,__End__,1701556188690,undefined,undefined,undefined,20,포르투갈에서 친구가 선물을 보내왔다.  그 선물은 내가 정말 갖고 싶어하던 것이었다.,y,NULL
1701557144,cc419ef3be50fa98634436f8a3daf74d,PennController,54,0,filler,NULL,acceptability,Scale,Select,7,1701556214425,undefined,undefined,undefined,20,포르투갈에서 친구가 선물을 보내왔다.  그 선물은 내가 정말 갖고 싶어하던 것이었다.,y,NULL
1701557144,cc419ef3be50fa98634436f8a3daf74d,PennController,54,0,filler,NULL,continue,Button,Click,Click,1701556215126,undefined,undefined,undefined,20,포르투갈에서 친구가 선물을 보내왔다.  그 선물은 내가 정말 갖고 싶어하던 것이었다.,y,NULL
1701557144,cc419ef3be50fa98634436f8a3daf74d,PennController,54,0,filler,NULL,filler,__Trial__,__Event__,__End__,1701556215132,undefined,undefined,undefined,20,포르투갈에서 친구가 선물을 보내왔다.  그 선물은 내가 정말 갖고 싶어하던 것이었다.,y,NULL
1701557144,cc419ef3be50fa98634436f8a3daf74d,PennController,72,0,filler,NULL,filler,__Trial__,__Event__,__Start__,1701556215134,undefined,undefined,undefined,38,계곡에서 친척들이 수박을 먹었다. 그 바다는 친척들이 여름마다 가는 곳이다.,n,NULL
1701557144,cc419ef3be50fa98634436f8a3daf74d,PennController,72,0,filler,NULL,filler,__Header__,__Event__,__Start__,1701556215134,undefined,undefined,undefined,38,계곡에서 친척들이 수박을 먹었다. 그 바다는 친척들이 여름마다 가는 곳이다.,n,NULL
1701557144,cc419ef3be50fa98634436f8a3daf74d,PennController,72,0,filler,NULL,filler,__Header__,__Event__,__End__,1701556215136,undefined,undefined,undefined,38,계곡에서 친척들이 수박을 먹었다. 그 바다는 친척들이 여름마다 가는 곳이다.,n,NULL
1701557144,cc419ef3be50fa98634436f8a3daf74d,PennController,72,0,filler,NULL,acceptability,Scale,Select,1,1701556223028,undefined,undefined,undefined,38,계곡에서 친척들이 수박을 먹었다. 그 바다는 친척들이 여름마다 가는 곳이다.,n,NULL
1701557144,cc419ef3be50fa98634436f8a3daf74d,PennController,72,0,filler,NULL,continue,Button,Click,Click,1701556223779,undefined,undefined,undefined,38,계곡에서 친척들이 수박을 먹었다. 그 바다는 친척들이 여름마다 가는 곳이다.,n,NULL
1701557144,cc419ef3be50fa98634436f8a3daf74d,PennController,72,0,filler,NULL,filler,__Trial__,__Event__,__End__,1701556223780,undefined,undefined,undefined,38,계곡에서 친척들이 수박을 먹었다. 그 바다는 친척들이 여름마다 가는 곳이다.,n,NULL
# 16. target_group.
# 17. target_set.
# 18. target_condition.
# 19. target_sentence.
# 20. target_word_order.
# 21. target_interpretation.
# 22. target_existential.
# 23. Comments.
1701557144,cc419ef3be50fa98634436f8a3daf74d,PennController,17,0,experiment,NULL,experiment,__Trial__,__Event__,__Start__,1701556223783,undefined,undefined,undefined,1,7,exi-uni_surf,뉴욕에서 어떤 사진사가 모든 관광객을 찍었다. 그 사진사는 스냅 사진을 잘 찍는 것으로 알려져있었다.,exi-uni,surface,etten,NULL
1701557144,cc419ef3be50fa98634436f8a3daf74d,PennController,17,0,experiment,NULL,experiment,__Header__,__Event__,__Start__,1701556223783,undefined,undefined,undefined,1,7,exi-uni_surf,뉴욕에서 어떤 사진사가 모든 관광객을 찍었다. 그 사진사는 스냅 사진을 잘 찍는 것으로 알려져있었다.,exi-uni,surface,etten,NULL
1701557144,cc419ef3be50fa98634436f8a3daf74d,PennController,17,0,experiment,NULL,experiment,__Header__,__Event__,__End__,1701556223785,undefined,undefined,undefined,1,7,exi-uni_surf,뉴욕에서 어떤 사진사가 모든 관광객을 찍었다. 그 사진사는 스냅 사진을 잘 찍는 것으로 알려져있었다.,exi-uni,surface,etten,NULL
1701557144,cc419ef3be50fa98634436f8a3daf74d,PennController,17,0,experiment,NULL,acceptability,Scale,Select,7,1701556274392,undefined,undefined,undefined,1,7,exi-uni_surf,뉴욕에서 어떤 사진사가 모든 관광객을 찍었다. 그 사진사는 스냅 사진을 잘 찍는 것으로 알려져있었다.,exi-uni,surface,etten,NULL
1701557144,cc419ef3be50fa98634436f8a3daf74d,PennController,17,0,experiment,NULL,continue,Button,Click,Click,1701556275560,undefined,undefined,undefined,1,7,exi-uni_surf,뉴욕에서 어떤 사진사가 모든 관광객을 찍었다. 그 사진사는 스냅 사진을 잘 찍는 것으로 알려져있었다.,exi-uni,surface,etten,NULL
1701557144,cc419ef3be50fa98634436f8a3daf74d,PennController,17,0,experiment,NULL,experiment,__Trial__,__Event__,__End__,1701556275562,undefined,undefined,undefined,1,7,exi-uni_surf,뉴욕에서 어떤 사진사가 모든 관광객을 찍었다. 그 사진사는 스냅 사진을 잘 찍는 것으로 알려져있었다.,exi-uni,surface,etten,NULL
# 16. filler_number.
# 17. filler_sentence.
# 18. filler_felicitous.
# 19. Comments.
1701557144,cc419ef3be50fa98634436f8a3daf74d,PennController,64,0,filler,NULL,filler,__Trial__,__Event__,__Start__,1701556275565,undefined,undefined,undefined,30,수영장에서 아이들이 위험하게 물놀이를 했다. 그 안전요원이 지켜보고 있었기 때문이다.,n,NULL
1701557144,cc419ef3be50fa98634436f8a3daf74d,PennController,64,0,filler,NULL,filler,__Header__,__Event__,__Start__,1701556275565,undefined,undefined,undefined,30,수영장에서 아이들이 위험하게 물놀이를 했다. 그 안전요원이 지켜보고 있었기 때문이다.,n,NULL
1701557144,cc419ef3be50fa98634436f8a3daf74d,PennController,64,0,filler,NULL,filler,__Header__,__Event__,__End__,1701556275566,undefined,undefined,undefined,30,수영장에서 아이들이 위험하게 물놀이를 했다. 그 안전요원이 지켜보고 있었기 때문이다.,n,NULL
1701557144,cc419ef3be50fa98634436f8a3daf74d,PennController,64,0,filler,NULL,acceptability,Scale,Select,1,1701556285375,undefined,undefined,undefined,30,수영장에서 아이들이 위험하게 물놀이를 했다. 그 안전요원이 지켜보고 있었기 때문이다.,n,NULL
1701557144,cc419ef3be50fa98634436f8a3daf74d,PennController,64,0,filler,NULL,continue,Button,Click,Click,1701556286177,undefined,undefined,undefined,30,수영장에서 아이들이 위험하게 물놀이를 했다. 그 안전요원이 지켜보고 있었기 때문이다.,n,NULL
1701557144,cc419ef3be50fa98634436f8a3daf74d,PennController,64,0,filler,NULL,filler,__Trial__,__Event__,__End__,1701556286179,undefined,undefined,undefined,30,수영장에서 아이들이 위험하게 물놀이를 했다. 그 안전요원이 지켜보고 있었기 때문이다.,n,NULL
1701557144,cc419ef3be50fa98634436f8a3daf74d,PennController,47,0,filler,NULL,filler,__Trial__,__Event__,__Start__,1701556286180,undefined,undefined,undefined,13,테라스에서 부모님이 샌드위치를 먹었다. 그 샌드위치는 연어 샌드위치였다.,y,NULL
1701557144,cc419ef3be50fa98634436f8a3daf74d,PennController,47,0,filler,NULL,filler,__Header__,__Event__,__Start__,1701556286180,undefined,undefined,undefined,13,테라스에서 부모님이 샌드위치를 먹었다. 그 샌드위치는 연어 샌드위치였다.,y,NULL
1701557144,cc419ef3be50fa98634436f8a3daf74d,PennController,47,0,filler,NULL,filler,__Header__,__Event__,__End__,1701556286182,undefined,undefined,undefined,13,테라스에서 부모님이 샌드위치를 먹었다. 그 샌드위치는 연어 샌드위치였다.,y,NULL
1701557144,cc419ef3be50fa98634436f8a3daf74d,PennController,47,0,filler,NULL,acceptability,Scale,Select,6,1701556295130,undefined,undefined,undefined,13,테라스에서 부모님이 샌드위치를 먹었다. 그 샌드위치는 연어 샌드위치였다.,y,NULL
1701557144,cc419ef3be50fa98634436f8a3daf74d,PennController,47,0,filler,NULL,continue,Button,Click,Click,1701556296498,undefined,undefined,undefined,13,테라스에서 부모님이 샌드위치를 먹었다. 그 샌드위치는 연어 샌드위치였다.,y,NULL
1701557144,cc419ef3be50fa98634436f8a3daf74d,PennController,47,0,filler,NULL,filler,__Trial__,__Event__,__End__,1701556296500,undefined,undefined,undefined,13,테라스에서 부모님이 샌드위치를 먹었다. 그 샌드위치는 연어 샌드위치였다.,y,NULL
# 16. target_group.
# 17. target_set.
# 18. target_condition.
# 19. target_sentence.
# 20. target_word_order.
# 21. target_interpretation.
# 22. target_existential.
# 23. Comments.
1701557144,cc419ef3be50fa98634436f8a3daf74d,PennController,12,0,experiment,NULL,experiment,__Trial__,__Event__,__Start__,1701556296502,undefined,undefined,undefined,1,2,exi-uni_inv,식당에서 어떤 손님이 모든 요리사를 칭찬했다. 그 손님들은 많은 팁을 남기고 갔다.,exi-uni,inverse,etten,NULL
1701557144,cc419ef3be50fa98634436f8a3daf74d,PennController,12,0,experiment,NULL,experiment,__Header__,__Event__,__Start__,1701556296502,undefined,undefined,undefined,1,2,exi-uni_inv,식당에서 어떤 손님이 모든 요리사를 칭찬했다. 그 손님들은 많은 팁을 남기고 갔다.,exi-uni,inverse,etten,NULL
1701557144,cc419ef3be50fa98634436f8a3daf74d,PennController,12,0,experiment,NULL,experiment,__Header__,__Event__,__End__,1701556296503,undefined,undefined,undefined,1,2,exi-uni_inv,식당에서 어떤 손님이 모든 요리사를 칭찬했다. 그 손님들은 많은 팁을 남기고 갔다.,exi-uni,inverse,etten,NULL
1701557144,cc419ef3be50fa98634436f8a3daf74d,PennController,12,0,experiment,NULL,acceptability,Scale,Select,7,1701556310939,undefined,undefined,undefined,1,2,exi-uni_inv,식당에서 어떤 손님이 모든 요리사를 칭찬했다. 그 손님들은 많은 팁을 남기고 갔다.,exi-uni,inverse,etten,NULL
1701557144,cc419ef3be50fa98634436f8a3daf74d,PennController,12,0,experiment,NULL,continue,Button,Click,Click,1701556311667,undefined,undefined,undefined,1,2,exi-uni_inv,식당에서 어떤 손님이 모든 요리사를 칭찬했다. 그 손님들은 많은 팁을 남기고 갔다.,exi-uni,inverse,etten,NULL
1701557144,cc419ef3be50fa98634436f8a3daf74d,PennController,12,0,experiment,NULL,experiment,__Trial__,__Event__,__End__,1701556311668,undefined,undefined,undefined,1,2,exi-uni_inv,식당에서 어떤 손님이 모든 요리사를 칭찬했다. 그 손님들은 많은 팁을 남기고 갔다.,exi-uni,inverse,etten,NULL
# 16. filler_number.
# 17. filler_sentence.
# 18. filler_felicitous.
# 19. Comments.
1701557144,cc419ef3be50fa98634436f8a3daf74d,PennController,78,0,filler,NULL,filler,__Trial__,__Event__,__Start__,1701556311670,undefined,undefined,undefined,44,약국에서 약사가 약을 조제했다. 그 의사는 진료를 잘 보기로 유명하다.,n,NULL
1701557144,cc419ef3be50fa98634436f8a3daf74d,PennController,78,0,filler,NULL,filler,__Header__,__Event__,__Start__,1701556311670,undefined,undefined,undefined,44,약국에서 약사가 약을 조제했다. 그 의사는 진료를 잘 보기로 유명하다.,n,NULL
1701557144,cc419ef3be50fa98634436f8a3daf74d,PennController,78,0,filler,NULL,filler,__Header__,__Event__,__End__,1701556311671,undefined,undefined,undefined,44,약국에서 약사가 약을 조제했다. 그 의사는 진료를 잘 보기로 유명하다.,n,NULL
1701557144,cc419ef3be50fa98634436f8a3daf74d,PennController,78,0,filler,NULL,acceptability,Scale,Select,1,1701556319135,undefined,undefined,undefined,44,약국에서 약사가 약을 조제했다. 그 의사는 진료를 잘 보기로 유명하다.,n,NULL
1701557144,cc419ef3be50fa98634436f8a3daf74d,PennController,78,0,filler,NULL,continue,Button,Click,Click,1701556320119,undefined,undefined,undefined,44,약국에서 약사가 약을 조제했다. 그 의사는 진료를 잘 보기로 유명하다.,n,NULL
1701557144,cc419ef3be50fa98634436f8a3daf74d,PennController,78,0,filler,NULL,filler,__Trial__,__Event__,__End__,1701556320121,undefined,undefined,undefined,44,약국에서 약사가 약을 조제했다. 그 의사는 진료를 잘 보기로 유명하다.,n,NULL
1701557144,cc419ef3be50fa98634436f8a3daf74d,PennController,73,0,filler,NULL,filler,__Trial__,__Event__,__Start__,1701556320123,undefined,undefined,undefined,39,신발가게에서 점원이 구두를 판매했다. 그 운동화는 올해의 인기 상품 중 하나이다.,n,NULL
1701557144,cc419ef3be50fa98634436f8a3daf74d,PennController,73,0,filler,NULL,filler,__Header__,__Event__,__Start__,1701556320123,undefined,undefined,undefined,39,신발가게에서 점원이 구두를 판매했다. 그 운동화는 올해의 인기 상품 중 하나이다.,n,NULL
1701557144,cc419ef3be50fa98634436f8a3daf74d,PennController,73,0,filler,NULL,filler,__Header__,__Event__,__End__,1701556320125,undefined,undefined,undefined,39,신발가게에서 점원이 구두를 판매했다. 그 운동화는 올해의 인기 상품 중 하나이다.,n,NULL
1701557144,cc419ef3be50fa98634436f8a3daf74d,PennController,73,0,filler,NULL,acceptability,Scale,Select,1,1701556331090,undefined,undefined,undefined,39,신발가게에서 점원이 구두를 판매했다. 그 운동화는 올해의 인기 상품 중 하나이다.,n,NULL
1701557144,cc419ef3be50fa98634436f8a3daf74d,PennController,73,0,filler,NULL,continue,Button,Click,Click,1701556331873,undefined,undefined,undefined,39,신발가게에서 점원이 구두를 판매했다. 그 운동화는 올해의 인기 상품 중 하나이다.,n,NULL
1701557144,cc419ef3be50fa98634436f8a3daf74d,PennController,73,0,filler,NULL,filler,__Trial__,__Event__,__End__,1701556331874,undefined,undefined,undefined,39,신발가게에서 점원이 구두를 판매했다. 그 운동화는 올해의 인기 상품 중 하나이다.,n,NULL
# 16. target_group.
# 17. target_set.
# 18. target_condition.
# 19. target_sentence.
# 20. target_word_order.
# 21. target_interpretation.
# 22. target_existential.
# 23. Comments.
1701557144,cc419ef3be50fa98634436f8a3daf74d,PennController,21,0,experiment,NULL,experiment,__Trial__,__Event__,__Start__,1701556331876,undefined,undefined,undefined,1,11,exi-uni_surf,옷가게에서 어떤 직원이 모든 손님을 나무랐다. 그 직원은 다음 날 해고되었다.,exi-uni,surface,etten,NULL
1701557144,cc419ef3be50fa98634436f8a3daf74d,PennController,21,0,experiment,NULL,experiment,__Header__,__Event__,__Start__,1701556331876,undefined,undefined,undefined,1,11,exi-uni_surf,옷가게에서 어떤 직원이 모든 손님을 나무랐다. 그 직원은 다음 날 해고되었다.,exi-uni,surface,etten,NULL
1701557144,cc419ef3be50fa98634436f8a3daf74d,PennController,21,0,experiment,NULL,experiment,__Header__,__Event__,__End__,1701556331877,undefined,undefined,undefined,1,11,exi-uni_surf,옷가게에서 어떤 직원이 모든 손님을 나무랐다. 그 직원은 다음 날 해고되었다.,exi-uni,surface,etten,NULL
1701557144,cc419ef3be50fa98634436f8a3daf74d,PennController,21,0,experiment,NULL,acceptability,Scale,Select,7,1701556352129,undefined,undefined,undefined,1,11,exi-uni_surf,옷가게에서 어떤 직원이 모든 손님을 나무랐다. 그 직원은 다음 날 해고되었다.,exi-uni,surface,etten,NULL
1701557144,cc419ef3be50fa98634436f8a3daf74d,PennController,21,0,experiment,NULL,continue,Button,Click,Click,1701556353562,undefined,undefined,undefined,1,11,exi-uni_surf,옷가게에서 어떤 직원이 모든 손님을 나무랐다. 그 직원은 다음 날 해고되었다.,exi-uni,surface,etten,NULL
1701557144,cc419ef3be50fa98634436f8a3daf74d,PennController,21,0,experiment,NULL,experiment,__Trial__,__Event__,__End__,1701556353564,undefined,undefined,undefined,1,11,exi-uni_surf,옷가게에서 어떤 직원이 모든 손님을 나무랐다. 그 직원은 다음 날 해고되었다.,exi-uni,surface,etten,NULL
# 16. filler_number.
# 17. filler_sentence.
# 18. filler_felicitous.
# 19. Comments.
1701557144,cc419ef3be50fa98634436f8a3daf74d,PennController,57,0,filler,NULL,filler,__Trial__,__Event__,__Start__,1701556353566,undefined,undefined,undefined,23,작년에 나는 회사를 그만 두었다. 그 회사는 나의 첫 직장이었다.,y,NULL
1701557144,cc419ef3be50fa98634436f8a3daf74d,PennController,57,0,filler,NULL,filler,__Header__,__Event__,__Start__,1701556353566,undefined,undefined,undefined,23,작년에 나는 회사를 그만 두었다. 그 회사는 나의 첫 직장이었다.,y,NULL
1701557144,cc419ef3be50fa98634436f8a3daf74d,PennController,57,0,filler,NULL,filler,__Header__,__Event__,__End__,1701556353567,undefined,undefined,undefined,23,작년에 나는 회사를 그만 두었다. 그 회사는 나의 첫 직장이었다.,y,NULL
1701557144,cc419ef3be50fa98634436f8a3daf74d,PennController,57,0,filler,NULL,acceptability,Scale,Select,7,1701556362014,undefined,undefined,undefined,23,작년에 나는 회사를 그만 두었다. 그 회사는 나의 첫 직장이었다.,y,NULL
1701557144,cc419ef3be50fa98634436f8a3daf74d,PennController,57,0,filler,NULL,continue,Button,Click,Click,1701556363416,undefined,undefined,undefined,23,작년에 나는 회사를 그만 두었다. 그 회사는 나의 첫 직장이었다.,y,NULL
1701557144,cc419ef3be50fa98634436f8a3daf74d,PennController,57,0,filler,NULL,filler,__Trial__,__Event__,__End__,1701556363418,undefined,undefined,undefined,23,작년에 나는 회사를 그만 두었다. 그 회사는 나의 첫 직장이었다.,y,NULL
1701557144,cc419ef3be50fa98634436f8a3daf74d,PennController,55,0,filler,NULL,filler,__Trial__,__Event__,__Start__,1701556363420,undefined,undefined,undefined,21,사무실에서 사원들이 도시락을 먹었다. 그 도시락은 사장님이 직접 준비한 것이었다.,y,NULL
1701557144,cc419ef3be50fa98634436f8a3daf74d,PennController,55,0,filler,NULL,filler,__Header__,__Event__,__Start__,1701556363420,undefined,undefined,undefined,21,사무실에서 사원들이 도시락을 먹었다. 그 도시락은 사장님이 직접 준비한 것이었다.,y,NULL
1701557144,cc419ef3be50fa98634436f8a3daf74d,PennController,55,0,filler,NULL,filler,__Header__,__Event__,__End__,1701556363421,undefined,undefined,undefined,21,사무실에서 사원들이 도시락을 먹었다. 그 도시락은 사장님이 직접 준비한 것이었다.,y,NULL
1701557144,cc419ef3be50fa98634436f8a3daf74d,PennController,55,0,filler,NULL,acceptability,Scale,Select,7,1701556370436,undefined,undefined,undefined,21,사무실에서 사원들이 도시락을 먹었다. 그 도시락은 사장님이 직접 준비한 것이었다.,y,NULL
1701557144,cc419ef3be50fa98634436f8a3daf74d,PennController,55,0,filler,NULL,continue,Button,Click,Click,1701556371417,undefined,undefined,undefined,21,사무실에서 사원들이 도시락을 먹었다. 그 도시락은 사장님이 직접 준비한 것이었다.,y,NULL
1701557144,cc419ef3be50fa98634436f8a3daf74d,PennController,55,0,filler,NULL,filler,__Trial__,__Event__,__End__,1701556371419,undefined,undefined,undefined,21,사무실에서 사원들이 도시락을 먹었다. 그 도시락은 사장님이 직접 준비한 것이었다.,y,NULL
# 16. target_group.
# 17. target_set.
# 18. target_condition.
# 19. target_sentence.
# 20. target_word_order.
# 21. target_interpretation.
# 22. target_existential.
# 23. Comments.
1701557144,cc419ef3be50fa98634436f8a3daf74d,PennController,11,0,experiment,NULL,experiment,__Trial__,__Event__,__Start__,1701556371420,undefined,undefined,undefined,1,1,uni-exi_surf,학교에서 모든 학생이 어떤 선생님을 비판했다. 그 선생님들이 시험지를 유출했기 때문이다.,uni-exi,surface,etten,NULL
1701557144,cc419ef3be50fa98634436f8a3daf74d,PennController,11,0,experiment,NULL,experiment,__Header__,__Event__,__Start__,1701556371420,undefined,undefined,undefined,1,1,uni-exi_surf,학교에서 모든 학생이 어떤 선생님을 비판했다. 그 선생님들이 시험지를 유출했기 때문이다.,uni-exi,surface,etten,NULL
1701557144,cc419ef3be50fa98634436f8a3daf74d,PennController,11,0,experiment,NULL,experiment,__Header__,__Event__,__End__,1701556371421,undefined,undefined,undefined,1,1,uni-exi_surf,학교에서 모든 학생이 어떤 선생님을 비판했다. 그 선생님들이 시험지를 유출했기 때문이다.,uni-exi,surface,etten,NULL
1701557144,cc419ef3be50fa98634436f8a3daf74d,PennController,11,0,experiment,NULL,acceptability,Scale,Select,1,1701556381521,undefined,undefined,undefined,1,1,uni-exi_surf,학교에서 모든 학생이 어떤 선생님을 비판했다. 그 선생님들이 시험지를 유출했기 때문이다.,uni-exi,surface,etten,NULL
1701557144,cc419ef3be50fa98634436f8a3daf74d,PennController,11,0,experiment,NULL,continue,Button,Click,Click,1701556385524,undefined,undefined,undefined,1,1,uni-exi_surf,학교에서 모든 학생이 어떤 선생님을 비판했다. 그 선생님들이 시험지를 유출했기 때문이다.,uni-exi,surface,etten,NULL
1701557144,cc419ef3be50fa98634436f8a3daf74d,PennController,11,0,experiment,NULL,experiment,__Trial__,__Event__,__End__,1701556385526,undefined,undefined,undefined,1,1,uni-exi_surf,학교에서 모든 학생이 어떤 선생님을 비판했다. 그 선생님들이 시험지를 유출했기 때문이다.,uni-exi,surface,etten,NULL
# 16. filler_number.
# 17. filler_sentence.
# 18. filler_felicitous.
# 19. Comments.
1701557144,cc419ef3be50fa98634436f8a3daf74d,PennController,67,0,filler,NULL,filler,__Trial__,__Event__,__Start__,1701556385527,undefined,undefined,undefined,33,한강에서 연인들이 치킨을 시켜 먹었다. 그 튀김이 정말 바삭했기 때문이다.,n,NULL
1701557144,cc419ef3be50fa98634436f8a3daf74d,PennController,67,0,filler,NULL,filler,__Header__,__Event__,__Start__,1701556385527,undefined,undefined,undefined,33,한강에서 연인들이 치킨을 시켜 먹었다. 그 튀김이 정말 바삭했기 때문이다.,n,NULL
1701557144,cc419ef3be50fa98634436f8a3daf74d,PennController,67,0,filler,NULL,filler,__Header__,__Event__,__End__,1701556385529,undefined,undefined,undefined,33,한강에서 연인들이 치킨을 시켜 먹었다. 그 튀김이 정말 바삭했기 때문이다.,n,NULL
1701557144,cc419ef3be50fa98634436f8a3daf74d,PennController,67,0,filler,NULL,acceptability,Scale,Select,1,1701556391053,undefined,undefined,undefined,33,한강에서 연인들이 치킨을 시켜 먹었다. 그 튀김이 정말 바삭했기 때문이다.,n,NULL
1701557144,cc419ef3be50fa98634436f8a3daf74d,PennController,67,0,filler,NULL,continue,Button,Click,Click,1701556391820,undefined,undefined,undefined,33,한강에서 연인들이 치킨을 시켜 먹었다. 그 튀김이 정말 바삭했기 때문이다.,n,NULL
1701557144,cc419ef3be50fa98634436f8a3daf74d,PennController,67,0,filler,NULL,filler,__Trial__,__Event__,__End__,1701556391822,undefined,undefined,undefined,33,한강에서 연인들이 치킨을 시켜 먹었다. 그 튀김이 정말 바삭했기 때문이다.,n,NULL
1701557144,cc419ef3be50fa98634436f8a3daf74d,PennController,45,0,filler,NULL,filler,__Trial__,__Event__,__Start__,1701556391824,undefined,undefined,undefined,11,축구장에서 재동이가 축구를 가르치고있다. 그가 청소년 축구대표 출신이기 때문이다.,y,NULL
1701557144,cc419ef3be50fa98634436f8a3daf74d,PennController,45,0,filler,NULL,filler,__Header__,__Event__,__Start__,1701556391824,undefined,undefined,undefined,11,축구장에서 재동이가 축구를 가르치고있다. 그가 청소년 축구대표 출신이기 때문이다.,y,NULL
1701557144,cc419ef3be50fa98634436f8a3daf74d,PennController,45,0,filler,NULL,filler,__Header__,__Event__,__End__,1701556391825,undefined,undefined,undefined,11,축구장에서 재동이가 축구를 가르치고있다. 그가 청소년 축구대표 출신이기 때문이다.,y,NULL
1701557144,cc419ef3be50fa98634436f8a3daf74d,PennController,45,0,filler,NULL,acceptability,Scale,Select,6,1701556405372,undefined,undefined,undefined,11,축구장에서 재동이가 축구를 가르치고있다. 그가 청소년 축구대표 출신이기 때문이다.,y,NULL
1701557144,cc419ef3be50fa98634436f8a3daf74d,PennController,45,0,filler,NULL,continue,Button,Click,Click,1701556406156,undefined,undefined,undefined,11,축구장에서 재동이가 축구를 가르치고있다. 그가 청소년 축구대표 출신이기 때문이다.,y,NULL
1701557144,cc419ef3be50fa98634436f8a3daf74d,PennController,45,0,filler,NULL,filler,__Trial__,__Event__,__End__,1701556406158,undefined,undefined,undefined,11,축구장에서 재동이가 축구를 가르치고있다. 그가 청소년 축구대표 출신이기 때문이다.,y,NULL
# 16. target_group.
# 17. target_set.
# 18. target_condition.
# 19. target_sentence.
# 20. target_word_order.
# 21. target_interpretation.
# 22. target_existential.
# 23. Comments.
1701557144,cc419ef3be50fa98634436f8a3daf74d,PennController,26,0,experiment,NULL,experiment,__Trial__,__Event__,__Start__,1701556406160,undefined,undefined,undefined,1,16,uni-exi_inv,서커스 공연 중 모든 사자가 누군가를 뛰어넘었다. 그 사람은 숙련된 단원이기 때문에 겁먹지 않았다.,uni-exi,inverse,nwukwunka,NULL
1701557144,cc419ef3be50fa98634436f8a3daf74d,PennController,26,0,experiment,NULL,experiment,__Header__,__Event__,__Start__,1701556406160,undefined,undefined,undefined,1,16,uni-exi_inv,서커스 공연 중 모든 사자가 누군가를 뛰어넘었다. 그 사람은 숙련된 단원이기 때문에 겁먹지 않았다.,uni-exi,inverse,nwukwunka,NULL
1701557144,cc419ef3be50fa98634436f8a3daf74d,PennController,26,0,experiment,NULL,experiment,__Header__,__Event__,__End__,1701556406161,undefined,undefined,undefined,1,16,uni-exi_inv,서커스 공연 중 모든 사자가 누군가를 뛰어넘었다. 그 사람은 숙련된 단원이기 때문에 겁먹지 않았다.,uni-exi,inverse,nwukwunka,NULL
1701557144,cc419ef3be50fa98634436f8a3daf74d,PennController,26,0,experiment,NULL,acceptability,Scale,Select,7,1701556416553,undefined,undefined,undefined,1,16,uni-exi_inv,서커스 공연 중 모든 사자가 누군가를 뛰어넘었다. 그 사람은 숙련된 단원이기 때문에 겁먹지 않았다.,uni-exi,inverse,nwukwunka,NULL
1701557144,cc419ef3be50fa98634436f8a3daf74d,PennController,26,0,experiment,NULL,continue,Button,Click,Click,1701556417323,undefined,undefined,undefined,1,16,uni-exi_inv,서커스 공연 중 모든 사자가 누군가를 뛰어넘었다. 그 사람은 숙련된 단원이기 때문에 겁먹지 않았다.,uni-exi,inverse,nwukwunka,NULL
1701557144,cc419ef3be50fa98634436f8a3daf74d,PennController,26,0,experiment,NULL,experiment,__Trial__,__Event__,__End__,1701556417326,undefined,undefined,undefined,1,16,uni-exi_inv,서커스 공연 중 모든 사자가 누군가를 뛰어넘었다. 그 사람은 숙련된 단원이기 때문에 겁먹지 않았다.,uni-exi,inverse,nwukwunka,NULL
# 16. filler_number.
# 17. filler_sentence.
# 18. filler_felicitous.
# 19. Comments.
1701557144,cc419ef3be50fa98634436f8a3daf74d,PennController,43,0,filler,NULL,filler,__Trial__,__Event__,__Start__,1701556417327,undefined,undefined,undefined,9,맥도날드에서 아르바이트생이 하루종일 감자튀김을 튀겼다. 그 아르바이트생은 기름 냄새로 뒤덮였다.,y,NULL
1701557144,cc419ef3be50fa98634436f8a3daf74d,PennController,43,0,filler,NULL,filler,__Header__,__Event__,__Start__,1701556417327,undefined,undefined,undefined,9,맥도날드에서 아르바이트생이 하루종일 감자튀김을 튀겼다. 그 아르바이트생은 기름 냄새로 뒤덮였다.,y,NULL
1701557144,cc419ef3be50fa98634436f8a3daf74d,PennController,43,0,filler,NULL,filler,__Header__,__Event__,__End__,1701556417328,undefined,undefined,undefined,9,맥도날드에서 아르바이트생이 하루종일 감자튀김을 튀겼다. 그 아르바이트생은 기름 냄새로 뒤덮였다.,y,NULL
1701557144,cc419ef3be50fa98634436f8a3daf74d,PennController,43,0,filler,NULL,acceptability,Scale,Select,7,1701556430615,undefined,undefined,undefined,9,맥도날드에서 아르바이트생이 하루종일 감자튀김을 튀겼다. 그 아르바이트생은 기름 냄새로 뒤덮였다.,y,NULL
1701557144,cc419ef3be50fa98634436f8a3daf74d,PennController,43,0,filler,NULL,continue,Button,Click,Click,1701556431451,undefined,undefined,undefined,9,맥도날드에서 아르바이트생이 하루종일 감자튀김을 튀겼다. 그 아르바이트생은 기름 냄새로 뒤덮였다.,y,NULL
1701557144,cc419ef3be50fa98634436f8a3daf74d,PennController,43,0,filler,NULL,filler,__Trial__,__Event__,__End__,1701556431453,undefined,undefined,undefined,9,맥도날드에서 아르바이트생이 하루종일 감자튀김을 튀겼다. 그 아르바이트생은 기름 냄새로 뒤덮였다.,y,NULL
1701557144,cc419ef3be50fa98634436f8a3daf74d,PennController,36,0,filler,NULL,filler,__Trial__,__Event__,__Start__,1701556431455,undefined,undefined,undefined,2,비행기에서 승무원이 기내식을 나눠주었다. 그 승무원은 키가 크고 친절했다.,y,NULL
1701557144,cc419ef3be50fa98634436f8a3daf74d,PennController,36,0,filler,NULL,filler,__Header__,__Event__,__Start__,1701556431455,undefined,undefined,undefined,2,비행기에서 승무원이 기내식을 나눠주었다. 그 승무원은 키가 크고 친절했다.,y,NULL
1701557144,cc419ef3be50fa98634436f8a3daf74d,PennController,36,0,filler,NULL,filler,__Header__,__Event__,__End__,1701556431457,undefined,undefined,undefined,2,비행기에서 승무원이 기내식을 나눠주었다. 그 승무원은 키가 크고 친절했다.,y,NULL
1701557144,cc419ef3be50fa98634436f8a3daf74d,PennController,36,0,filler,NULL,acceptability,Scale,Select,7,1701556453275,undefined,undefined,undefined,2,비행기에서 승무원이 기내식을 나눠주었다. 그 승무원은 키가 크고 친절했다.,y,NULL
1701557144,cc419ef3be50fa98634436f8a3daf74d,PennController,36,0,filler,NULL,continue,Button,Click,Click,1701556454093,undefined,undefined,undefined,2,비행기에서 승무원이 기내식을 나눠주었다. 그 승무원은 키가 크고 친절했다.,y,NULL
1701557144,cc419ef3be50fa98634436f8a3daf74d,PennController,36,0,filler,NULL,filler,__Trial__,__Event__,__End__,1701556454094,undefined,undefined,undefined,2,비행기에서 승무원이 기내식을 나눠주었다. 그 승무원은 키가 크고 친절했다.,y,NULL
# 16. target_group.
# 17. target_set.
# 18. target_condition.
# 19. target_sentence.
# 20. target_word_order.
# 21. target_interpretation.
# 22. target_existential.
# 23. Comments.
1701557144,cc419ef3be50fa98634436f8a3daf74d,PennController,28,0,experiment,NULL,experiment,__Trial__,__Event__,__Start__,1701556454096,undefined,undefined,undefined,1,18,exi-uni_inv,태국의 사원에서 누군가가 모든 원숭이를 껴안았다. 그 사람들은 추억을 남기기 위해 무서움을 참고 사진을 찍었다.,exi-uni,inverse,nwukwunka,NULL
1701557144,cc419ef3be50fa98634436f8a3daf74d,PennController,28,0,experiment,NULL,experiment,__Header__,__Event__,__Start__,1701556454096,undefined,undefined,undefined,1,18,exi-uni_inv,태국의 사원에서 누군가가 모든 원숭이를 껴안았다. 그 사람들은 추억을 남기기 위해 무서움을 참고 사진을 찍었다.,exi-uni,inverse,nwukwunka,NULL
1701557144,cc419ef3be50fa98634436f8a3daf74d,PennController,28,0,experiment,NULL,experiment,__Header__,__Event__,__End__,1701556454097,undefined,undefined,undefined,1,18,exi-uni_inv,태국의 사원에서 누군가가 모든 원숭이를 껴안았다. 그 사람들은 추억을 남기기 위해 무서움을 참고 사진을 찍었다.,exi-uni,inverse,nwukwunka,NULL
1701557144,cc419ef3be50fa98634436f8a3daf74d,PennController,28,0,experiment,NULL,acceptability,Scale,Select,1,1701556475889,undefined,undefined,undefined,1,18,exi-uni_inv,태국의 사원에서 누군가가 모든 원숭이를 껴안았다. 그 사람들은 추억을 남기기 위해 무서움을 참고 사진을 찍었다.,exi-uni,inverse,nwukwunka,NULL
1701557144,cc419ef3be50fa98634436f8a3daf74d,PennController,28,0,experiment,NULL,continue,Button,Click,Click,1701556476706,undefined,undefined,undefined,1,18,exi-uni_inv,태국의 사원에서 누군가가 모든 원숭이를 껴안았다. 그 사람들은 추억을 남기기 위해 무서움을 참고 사진을 찍었다.,exi-uni,inverse,nwukwunka,NULL
1701557144,cc419ef3be50fa98634436f8a3daf74d,PennController,28,0,experiment,NULL,experiment,__Trial__,__Event__,__End__,1701556476709,undefined,undefined,undefined,1,18,exi-uni_inv,태국의 사원에서 누군가가 모든 원숭이를 껴안았다. 그 사람들은 추억을 남기기 위해 무서움을 참고 사진을 찍었다.,exi-uni,inverse,nwukwunka,NULL
# 16. filler_number.
# 17. filler_sentence.
# 18. filler_felicitous.
# 19. Comments.
1701557144,cc419ef3be50fa98634436f8a3daf74d,PennController,59,0,filler,NULL,filler,__Trial__,__Event__,__Start__,1701556476713,undefined,undefined,undefined,25,아침에 큰 눈이 내렸다. 그 비로 인해 교통 체증이 매우 심했다.,n,NULL
1701557144,cc419ef3be50fa98634436f8a3daf74d,PennController,59,0,filler,NULL,filler,__Header__,__Event__,__Start__,1701556476713,undefined,undefined,undefined,25,아침에 큰 눈이 내렸다. 그 비로 인해 교통 체증이 매우 심했다.,n,NULL
1701557144,cc419ef3be50fa98634436f8a3daf74d,PennController,59,0,filler,NULL,filler,__Header__,__Event__,__End__,1701556476715,undefined,undefined,undefined,25,아침에 큰 눈이 내렸다. 그 비로 인해 교통 체증이 매우 심했다.,n,NULL
1701557144,cc419ef3be50fa98634436f8a3daf74d,PennController,59,0,filler,NULL,acceptability,Scale,Select,1,1701556485730,undefined,undefined,undefined,25,아침에 큰 눈이 내렸다. 그 비로 인해 교통 체증이 매우 심했다.,n,NULL
1701557144,cc419ef3be50fa98634436f8a3daf74d,PennController,59,0,filler,NULL,continue,Button,Click,Click,1701556486480,undefined,undefined,undefined,25,아침에 큰 눈이 내렸다. 그 비로 인해 교통 체증이 매우 심했다.,n,NULL
1701557144,cc419ef3be50fa98634436f8a3daf74d,PennController,59,0,filler,NULL,filler,__Trial__,__Event__,__End__,1701556486482,undefined,undefined,undefined,25,아침에 큰 눈이 내렸다. 그 비로 인해 교통 체증이 매우 심했다.,n,NULL
1701557144,cc419ef3be50fa98634436f8a3daf74d,PennController,63,0,filler,NULL,filler,__Trial__,__Event__,__Start__,1701556486484,undefined,undefined,undefined,29,서점에서 작가의 신간 사인회가 있었다. 그 영화는 한국을 배경으로 한다.,n,NULL
1701557144,cc419ef3be50fa98634436f8a3daf74d,PennController,63,0,filler,NULL,filler,__Header__,__Event__,__Start__,1701556486484,undefined,undefined,undefined,29,서점에서 작가의 신간 사인회가 있었다. 그 영화는 한국을 배경으로 한다.,n,NULL
1701557144,cc419ef3be50fa98634436f8a3daf74d,PennController,63,0,filler,NULL,filler,__Header__,__Event__,__End__,1701556486486,undefined,undefined,undefined,29,서점에서 작가의 신간 사인회가 있었다. 그 영화는 한국을 배경으로 한다.,n,NULL
1701557144,cc419ef3be50fa98634436f8a3daf74d,PennController,63,0,filler,NULL,acceptability,Scale,Select,1,1701556493678,undefined,undefined,undefined,29,서점에서 작가의 신간 사인회가 있었다. 그 영화는 한국을 배경으로 한다.,n,NULL
1701557144,cc419ef3be50fa98634436f8a3daf74d,PennController,63,0,filler,NULL,continue,Button,Click,Click,1701556494411,undefined,undefined,undefined,29,서점에서 작가의 신간 사인회가 있었다. 그 영화는 한국을 배경으로 한다.,n,NULL
1701557144,cc419ef3be50fa98634436f8a3daf74d,PennController,63,0,filler,NULL,filler,__Trial__,__Event__,__End__,1701556494413,undefined,undefined,undefined,29,서점에서 작가의 신간 사인회가 있었다. 그 영화는 한국을 배경으로 한다.,n,NULL
# 16. target_group.
# 17. target_set.
# 18. target_condition.
# 19. target_sentence.
# 20. target_word_order.
# 21. target_interpretation.
# 22. target_existential.
# 23. Comments.
1701557144,cc419ef3be50fa98634436f8a3daf74d,PennController,34,0,experiment,NULL,experiment,__Trial__,__Event__,__Start__,1701556494415,undefined,undefined,undefined,1,24,uni-exi_inv,숲속에서 모든 뱀이 누군가를 위협했다. 그 사람은 뱀으로 술을 담그기 위해 뱀 사냥을 하고 있었다.,uni-exi,inverse,nwukwunka,NULL
1701557144,cc419ef3be50fa98634436f8a3daf74d,PennController,34,0,experiment,NULL,experiment,__Header__,__Event__,__Start__,1701556494415,undefined,undefined,undefined,1,24,uni-exi_inv,숲속에서 모든 뱀이 누군가를 위협했다. 그 사람은 뱀으로 술을 담그기 위해 뱀 사냥을 하고 있었다.,uni-exi,inverse,nwukwunka,NULL
1701557144,cc419ef3be50fa98634436f8a3daf74d,PennController,34,0,experiment,NULL,experiment,__Header__,__Event__,__End__,1701556494417,undefined,undefined,undefined,1,24,uni-exi_inv,숲속에서 모든 뱀이 누군가를 위협했다. 그 사람은 뱀으로 술을 담그기 위해 뱀 사냥을 하고 있었다.,uni-exi,inverse,nwukwunka,NULL
1701557144,cc419ef3be50fa98634436f8a3daf74d,PennController,34,0,experiment,NULL,acceptability,Scale,Select,6,1701556534080,undefined,undefined,undefined,1,24,uni-exi_inv,숲속에서 모든 뱀이 누군가를 위협했다. 그 사람은 뱀으로 술을 담그기 위해 뱀 사냥을 하고 있었다.,uni-exi,inverse,nwukwunka,NULL
1701557144,cc419ef3be50fa98634436f8a3daf74d,PennController,34,0,experiment,NULL,continue,Button,Click,Click,1701556543000,undefined,undefined,undefined,1,24,uni-exi_inv,숲속에서 모든 뱀이 누군가를 위협했다. 그 사람은 뱀으로 술을 담그기 위해 뱀 사냥을 하고 있었다.,uni-exi,inverse,nwukwunka,NULL
1701557144,cc419ef3be50fa98634436f8a3daf74d,PennController,34,0,experiment,NULL,experiment,__Trial__,__Event__,__End__,1701556543003,undefined,undefined,undefined,1,24,uni-exi_inv,숲속에서 모든 뱀이 누군가를 위협했다. 그 사람은 뱀으로 술을 담그기 위해 뱀 사냥을 하고 있었다.,uni-exi,inverse,nwukwunka,NULL
# 16. filler_number.
# 17. filler_sentence.
# 18. filler_felicitous.
# 19. Comments.
1701557144,cc419ef3be50fa98634436f8a3daf74d,PennController,68,0,filler,NULL,filler,__Trial__,__Event__,__Start__,1701556543007,undefined,undefined,undefined,34,어젯밤 꿈에서 어릴 적 살던 동네를 방문했다. 그 집은 우리 할아버지가 지은 집이었다.,n,NULL
1701557144,cc419ef3be50fa98634436f8a3daf74d,PennController,68,0,filler,NULL,filler,__Header__,__Event__,__Start__,1701556543007,undefined,undefined,undefined,34,어젯밤 꿈에서 어릴 적 살던 동네를 방문했다. 그 집은 우리 할아버지가 지은 집이었다.,n,NULL
1701557144,cc419ef3be50fa98634436f8a3daf74d,PennController,68,0,filler,NULL,filler,__Header__,__Event__,__End__,1701556543009,undefined,undefined,undefined,34,어젯밤 꿈에서 어릴 적 살던 동네를 방문했다. 그 집은 우리 할아버지가 지은 집이었다.,n,NULL
1701557144,cc419ef3be50fa98634436f8a3daf74d,PennController,68,0,filler,NULL,acceptability,Scale,Select,7,1701556556943,undefined,undefined,undefined,34,어젯밤 꿈에서 어릴 적 살던 동네를 방문했다. 그 집은 우리 할아버지가 지은 집이었다.,n,NULL
1701557144,cc419ef3be50fa98634436f8a3daf74d,PennController,68,0,filler,NULL,continue,Button,Click,Click,1701556557861,undefined,undefined,undefined,34,어젯밤 꿈에서 어릴 적 살던 동네를 방문했다. 그 집은 우리 할아버지가 지은 집이었다.,n,NULL
1701557144,cc419ef3be50fa98634436f8a3daf74d,PennController,68,0,filler,NULL,filler,__Trial__,__Event__,__End__,1701556557864,undefined,undefined,undefined,34,어젯밤 꿈에서 어릴 적 살던 동네를 방문했다. 그 집은 우리 할아버지가 지은 집이었다.,n,NULL
1701557144,cc419ef3be50fa98634436f8a3daf74d,PennController,65,0,filler,NULL,filler,__Trial__,__Event__,__Start__,1701556557867,undefined,undefined,undefined,31,놀이공원에서 놀이기구가 갑자기 작동을 멈췄다. 그 스님들은 놀란 가슴을 쓸어내렸다.,n,NULL
1701557144,cc419ef3be50fa98634436f8a3daf74d,PennController,65,0,filler,NULL,filler,__Header__,__Event__,__Start__,1701556557867,undefined,undefined,undefined,31,놀이공원에서 놀이기구가 갑자기 작동을 멈췄다. 그 스님들은 놀란 가슴을 쓸어내렸다.,n,NULL
1701557144,cc419ef3be50fa98634436f8a3daf74d,PennController,65,0,filler,NULL,filler,__Header__,__Event__,__End__,1701556557869,undefined,undefined,undefined,31,놀이공원에서 놀이기구가 갑자기 작동을 멈췄다. 그 스님들은 놀란 가슴을 쓸어내렸다.,n,NULL
1701557144,cc419ef3be50fa98634436f8a3daf74d,PennController,65,0,filler,NULL,acceptability,Scale,Select,1,1701556577238,undefined,undefined,undefined,31,놀이공원에서 놀이기구가 갑자기 작동을 멈췄다. 그 스님들은 놀란 가슴을 쓸어내렸다.,n,NULL
1701557144,cc419ef3be50fa98634436f8a3daf74d,PennController,65,0,filler,NULL,continue,Button,Click,Click,1701556578722,undefined,undefined,undefined,31,놀이공원에서 놀이기구가 갑자기 작동을 멈췄다. 그 스님들은 놀란 가슴을 쓸어내렸다.,n,NULL
1701557144,cc419ef3be50fa98634436f8a3daf74d,PennController,65,0,filler,NULL,filler,__Trial__,__Event__,__End__,1701556578724,undefined,undefined,undefined,31,놀이공원에서 놀이기구가 갑자기 작동을 멈췄다. 그 스님들은 놀란 가슴을 쓸어내렸다.,n,NULL
# 16. target_group.
# 17. target_set.
# 18. target_condition.
# 19. target_sentence.
# 20. target_word_order.
# 21. target_interpretation.
# 22. target_existential.
# 23. Comments.
1701557144,cc419ef3be50fa98634436f8a3daf74d,PennController,13,0,experiment,NULL,experiment,__Trial__,__Event__,__Start__,1701556578725,undefined,undefined,undefined,1,3,exi-uni_surf,병원에서 어떤 간호사가 모든 환자를 돌보았다. 그 간호사가 당직이었기 때문이다.,exi-uni,surface,etten,NULL
1701557144,cc419ef3be50fa98634436f8a3daf74d,PennController,13,0,experiment,NULL,experiment,__Header__,__Event__,__Start__,1701556578726,undefined,undefined,undefined,1,3,exi-uni_surf,병원에서 어떤 간호사가 모든 환자를 돌보았다. 그 간호사가 당직이었기 때문이다.,exi-uni,surface,etten,NULL
1701557144,cc419ef3be50fa98634436f8a3daf74d,PennController,13,0,experiment,NULL,experiment,__Header__,__Event__,__End__,1701556578727,undefined,undefined,undefined,1,3,exi-uni_surf,병원에서 어떤 간호사가 모든 환자를 돌보았다. 그 간호사가 당직이었기 때문이다.,exi-uni,surface,etten,NULL
1701557144,cc419ef3be50fa98634436f8a3daf74d,PennController,13,0,experiment,NULL,acceptability,Scale,Select,7,1701556590276,undefined,undefined,undefined,1,3,exi-uni_surf,병원에서 어떤 간호사가 모든 환자를 돌보았다. 그 간호사가 당직이었기 때문이다.,exi-uni,surface,etten,NULL
1701557144,cc419ef3be50fa98634436f8a3daf74d,PennController,13,0,experiment,NULL,continue,Button,Click,Click,1701556592577,undefined,undefined,undefined,1,3,exi-uni_surf,병원에서 어떤 간호사가 모든 환자를 돌보았다. 그 간호사가 당직이었기 때문이다.,exi-uni,surface,etten,NULL
1701557144,cc419ef3be50fa98634436f8a3daf74d,PennController,13,0,experiment,NULL,experiment,__Trial__,__Event__,__End__,1701556592579,undefined,undefined,undefined,1,3,exi-uni_surf,병원에서 어떤 간호사가 모든 환자를 돌보았다. 그 간호사가 당직이었기 때문이다.,exi-uni,surface,etten,NULL
# 16. filler_number.
# 17. filler_sentence.
# 18. filler_felicitous.
# 19. Comments.
1701557144,cc419ef3be50fa98634436f8a3daf74d,PennController,39,0,filler,NULL,filler,__Trial__,__Event__,__Start__,1701556592581,undefined,undefined,undefined,5,방에서 책상 위에 있는 꽃병이 떨어졌다. 그 꽃병은 내가 아끼는 것이었다.,y,NULL
1701557144,cc419ef3be50fa98634436f8a3daf74d,PennController,39,0,filler,NULL,filler,__Header__,__Event__,__Start__,1701556592581,undefined,undefined,undefined,5,방에서 책상 위에 있는 꽃병이 떨어졌다. 그 꽃병은 내가 아끼는 것이었다.,y,NULL
1701557144,cc419ef3be50fa98634436f8a3daf74d,PennController,39,0,filler,NULL,filler,__Header__,__Event__,__End__,1701556592582,undefined,undefined,undefined,5,방에서 책상 위에 있는 꽃병이 떨어졌다. 그 꽃병은 내가 아끼는 것이었다.,y,NULL
1701557144,cc419ef3be50fa98634436f8a3daf74d,PennController,39,0,filler,NULL,acceptability,Scale,Select,7,1701556606448,undefined,undefined,undefined,5,방에서 책상 위에 있는 꽃병이 떨어졌다. 그 꽃병은 내가 아끼는 것이었다.,y,NULL
1701557144,cc419ef3be50fa98634436f8a3daf74d,PennController,39,0,filler,NULL,continue,Button,Click,Click,1701556607298,undefined,undefined,undefined,5,방에서 책상 위에 있는 꽃병이 떨어졌다. 그 꽃병은 내가 아끼는 것이었다.,y,NULL
1701557144,cc419ef3be50fa98634436f8a3daf74d,PennController,39,0,filler,NULL,filler,__Trial__,__Event__,__End__,1701556607300,undefined,undefined,undefined,5,방에서 책상 위에 있는 꽃병이 떨어졌다. 그 꽃병은 내가 아끼는 것이었다.,y,NULL
1701557144,cc419ef3be50fa98634436f8a3daf74d,PennController,82,0,filler,NULL,filler,__Trial__,__Event__,__Start__,1701556607301,undefined,undefined,undefined,48,백화점에서 판매원이 고객에게 스웨터를 추천했다. 그 코트가 가장 인기있는 상품이기 때문이다.,n,NULL
1701557144,cc419ef3be50fa98634436f8a3daf74d,PennController,82,0,filler,NULL,filler,__Header__,__Event__,__Start__,1701556607301,undefined,undefined,undefined,48,백화점에서 판매원이 고객에게 스웨터를 추천했다. 그 코트가 가장 인기있는 상품이기 때문이다.,n,NULL
1701557144,cc419ef3be50fa98634436f8a3daf74d,PennController,82,0,filler,NULL,filler,__Header__,__Event__,__End__,1701556607302,undefined,undefined,undefined,48,백화점에서 판매원이 고객에게 스웨터를 추천했다. 그 코트가 가장 인기있는 상품이기 때문이다.,n,NULL
1701557144,cc419ef3be50fa98634436f8a3daf74d,PennController,82,0,filler,NULL,acceptability,Scale,Select,1,1701556622047,undefined,undefined,undefined,48,백화점에서 판매원이 고객에게 스웨터를 추천했다. 그 코트가 가장 인기있는 상품이기 때문이다.,n,NULL
1701557144,cc419ef3be50fa98634436f8a3daf74d,PennController,82,0,filler,NULL,continue,Button,Click,Click,1701556624199,undefined,undefined,undefined,48,백화점에서 판매원이 고객에게 스웨터를 추천했다. 그 코트가 가장 인기있는 상품이기 때문이다.,n,NULL
1701557144,cc419ef3be50fa98634436f8a3daf74d,PennController,82,0,filler,NULL,filler,__Trial__,__Event__,__End__,1701556624201,undefined,undefined,undefined,48,백화점에서 판매원이 고객에게 스웨터를 추천했다. 그 코트가 가장 인기있는 상품이기 때문이다.,n,NULL
# 16. target_group.
# 17. target_set.
# 18. target_condition.
# 19. target_sentence.
# 20. target_word_order.
# 21. target_interpretation.
# 22. target_existential.
# 23. Comments.
1701557144,cc419ef3be50fa98634436f8a3daf74d,PennController,15,0,experiment,NULL,experiment,__Trial__,__Event__,__Start__,1701556624203,undefined,undefined,undefined,1,5,uni-exi_surf,서울역에서 모든 경찰관이 어떤 도둑을 잡았다.  그 도둑들은 구치소에 수감되었다.,uni-exi,surface,etten,NULL
1701557144,cc419ef3be50fa98634436f8a3daf74d,PennController,15,0,experiment,NULL,experiment,__Header__,__Event__,__Start__,1701556624203,undefined,undefined,undefined,1,5,uni-exi_surf,서울역에서 모든 경찰관이 어떤 도둑을 잡았다.  그 도둑들은 구치소에 수감되었다.,uni-exi,surface,etten,NULL
1701557144,cc419ef3be50fa98634436f8a3daf74d,PennController,15,0,experiment,NULL,experiment,__Header__,__Event__,__End__,1701556624205,undefined,undefined,undefined,1,5,uni-exi_surf,서울역에서 모든 경찰관이 어떤 도둑을 잡았다.  그 도둑들은 구치소에 수감되었다.,uni-exi,surface,etten,NULL
1701557144,cc419ef3be50fa98634436f8a3daf74d,PennController,15,0,experiment,NULL,acceptability,Scale,Select,1,1701556632301,undefined,undefined,undefined,1,5,uni-exi_surf,서울역에서 모든 경찰관이 어떤 도둑을 잡았다.  그 도둑들은 구치소에 수감되었다.,uni-exi,surface,etten,NULL
1701557144,cc419ef3be50fa98634436f8a3daf74d,PennController,15,0,experiment,NULL,continue,Button,Click,Click,1701556633118,undefined,undefined,undefined,1,5,uni-exi_surf,서울역에서 모든 경찰관이 어떤 도둑을 잡았다.  그 도둑들은 구치소에 수감되었다.,uni-exi,surface,etten,NULL
1701557144,cc419ef3be50fa98634436f8a3daf74d,PennController,15,0,experiment,NULL,experiment,__Trial__,__Event__,__End__,1701556633120,undefined,undefined,undefined,1,5,uni-exi_surf,서울역에서 모든 경찰관이 어떤 도둑을 잡았다.  그 도둑들은 구치소에 수감되었다.,uni-exi,surface,etten,NULL
# 16. filler_number.
# 17. filler_sentence.
# 18. filler_felicitous.
# 19. Comments.
1701557144,cc419ef3be50fa98634436f8a3daf74d,PennController,62,0,filler,NULL,filler,__Trial__,__Event__,__Start__,1701556633121,undefined,undefined,undefined,28,과수원에서 농부가 포도나무를 심었다. 그 사과나무의 품종은 매우 우수하다.,n,NULL
1701557144,cc419ef3be50fa98634436f8a3daf74d,PennController,62,0,filler,NULL,filler,__Header__,__Event__,__Start__,1701556633122,undefined,undefined,undefined,28,과수원에서 농부가 포도나무를 심었다. 그 사과나무의 품종은 매우 우수하다.,n,NULL
1701557144,cc419ef3be50fa98634436f8a3daf74d,PennController,62,0,filler,NULL,filler,__Header__,__Event__,__End__,1701556633123,undefined,undefined,undefined,28,과수원에서 농부가 포도나무를 심었다. 그 사과나무의 품종은 매우 우수하다.,n,NULL
1701557144,cc419ef3be50fa98634436f8a3daf74d,PennController,62,0,filler,NULL,acceptability,Scale,Select,1,1701556643680,undefined,undefined,undefined,28,과수원에서 농부가 포도나무를 심었다. 그 사과나무의 품종은 매우 우수하다.,n,NULL
1701557144,cc419ef3be50fa98634436f8a3daf74d,PennController,62,0,filler,NULL,continue,Button,Click,Click,1701556644464,undefined,undefined,undefined,28,과수원에서 농부가 포도나무를 심었다. 그 사과나무의 품종은 매우 우수하다.,n,NULL
1701557144,cc419ef3be50fa98634436f8a3daf74d,PennController,62,0,filler,NULL,filler,__Trial__,__Event__,__End__,1701556644467,undefined,undefined,undefined,28,과수원에서 농부가 포도나무를 심었다. 그 사과나무의 품종은 매우 우수하다.,n,NULL
1701557144,cc419ef3be50fa98634436f8a3daf74d,PennController,66,0,filler,NULL,filler,__Trial__,__Event__,__Start__,1701556644470,undefined,undefined,undefined,32,강의 중에 교수님이 피피티를 활용했다. 그 책은 시험 공부에 많은 도움이 되었다.,n,NULL
1701557144,cc419ef3be50fa98634436f8a3daf74d,PennController,66,0,filler,NULL,filler,__Header__,__Event__,__Start__,1701556644470,undefined,undefined,undefined,32,강의 중에 교수님이 피피티를 활용했다. 그 책은 시험 공부에 많은 도움이 되었다.,n,NULL
1701557144,cc419ef3be50fa98634436f8a3daf74d,PennController,66,0,filler,NULL,filler,__Header__,__Event__,__End__,1701556644471,undefined,undefined,undefined,32,강의 중에 교수님이 피피티를 활용했다. 그 책은 시험 공부에 많은 도움이 되었다.,n,NULL
1701557144,cc419ef3be50fa98634436f8a3daf74d,PennController,66,0,filler,NULL,acceptability,Scale,Select,1,1701556658983,undefined,undefined,undefined,32,강의 중에 교수님이 피피티를 활용했다. 그 책은 시험 공부에 많은 도움이 되었다.,n,NULL
1701557144,cc419ef3be50fa98634436f8a3daf74d,PennController,66,0,filler,NULL,continue,Button,Click,Click,1701556659735,undefined,undefined,undefined,32,강의 중에 교수님이 피피티를 활용했다. 그 책은 시험 공부에 많은 도움이 되었다.,n,NULL
1701557144,cc419ef3be50fa98634436f8a3daf74d,PennController,66,0,filler,NULL,filler,__Trial__,__Event__,__End__,1701556659736,undefined,undefined,undefined,32,강의 중에 교수님이 피피티를 활용했다. 그 책은 시험 공부에 많은 도움이 되었다.,n,NULL
# 16. target_group.
# 17. target_set.
# 18. target_condition.
# 19. target_sentence.
# 20. target_word_order.
# 21. target_interpretation.
# 22. target_existential.
# 23. Comments.
1701557144,cc419ef3be50fa98634436f8a3daf74d,PennController,29,0,experiment,NULL,experiment,__Trial__,__Event__,__Start__,1701556659737,undefined,undefined,undefined,1,19,exi-uni_surf,해안가에서 누군가가 모든 상어를 공격했다. 그 사람은 다행히도 많이 다치지 않았다.,exi-uni,surface,nwukwunka,NULL
1701557144,cc419ef3be50fa98634436f8a3daf74d,PennController,29,0,experiment,NULL,experiment,__Header__,__Event__,__Start__,1701556659738,undefined,undefined,undefined,1,19,exi-uni_surf,해안가에서 누군가가 모든 상어를 공격했다. 그 사람은 다행히도 많이 다치지 않았다.,exi-uni,surface,nwukwunka,NULL
1701557144,cc419ef3be50fa98634436f8a3daf74d,PennController,29,0,experiment,NULL,experiment,__Header__,__Event__,__End__,1701556659739,undefined,undefined,undefined,1,19,exi-uni_surf,해안가에서 누군가가 모든 상어를 공격했다. 그 사람은 다행히도 많이 다치지 않았다.,exi-uni,surface,nwukwunka,NULL
1701557144,cc419ef3be50fa98634436f8a3daf74d,PennController,29,0,experiment,NULL,acceptability,Scale,Select,7,1701556707709,undefined,undefined,undefined,1,19,exi-uni_surf,해안가에서 누군가가 모든 상어를 공격했다. 그 사람은 다행히도 많이 다치지 않았다.,exi-uni,surface,nwukwunka,NULL
1701557144,cc419ef3be50fa98634436f8a3daf74d,PennController,29,0,experiment,NULL,continue,Button,Click,Click,1701556709403,undefined,undefined,undefined,1,19,exi-uni_surf,해안가에서 누군가가 모든 상어를 공격했다. 그 사람은 다행히도 많이 다치지 않았다.,exi-uni,surface,nwukwunka,NULL
1701557144,cc419ef3be50fa98634436f8a3daf74d,PennController,29,0,experiment,NULL,experiment,__Trial__,__Event__,__End__,1701556709405,undefined,undefined,undefined,1,19,exi-uni_surf,해안가에서 누군가가 모든 상어를 공격했다. 그 사람은 다행히도 많이 다치지 않았다.,exi-uni,surface,nwukwunka,NULL
# 16. filler_number.
# 17. filler_sentence.
# 18. filler_felicitous.
# 19. Comments.
1701557144,cc419ef3be50fa98634436f8a3daf74d,PennController,48,0,filler,NULL,filler,__Trial__,__Event__,__Start__,1701556709406,undefined,undefined,undefined,14,시장에서 엄마가 당근과 감자를 샀다. 그 재료들로 엄마가 카레를 만들었다.,y,NULL
1701557144,cc419ef3be50fa98634436f8a3daf74d,PennController,48,0,filler,NULL,filler,__Header__,__Event__,__Start__,1701556709406,undefined,undefined,undefined,14,시장에서 엄마가 당근과 감자를 샀다. 그 재료들로 엄마가 카레를 만들었다.,y,NULL
1701557144,cc419ef3be50fa98634436f8a3daf74d,PennController,48,0,filler,NULL,filler,__Header__,__Event__,__End__,1701556709408,undefined,undefined,undefined,14,시장에서 엄마가 당근과 감자를 샀다. 그 재료들로 엄마가 카레를 만들었다.,y,NULL
1701557144,cc419ef3be50fa98634436f8a3daf74d,PennController,48,0,filler,NULL,acceptability,Scale,Select,7,1701556714951,undefined,undefined,undefined,14,시장에서 엄마가 당근과 감자를 샀다. 그 재료들로 엄마가 카레를 만들었다.,y,NULL
1701557144,cc419ef3be50fa98634436f8a3daf74d,PennController,48,0,filler,NULL,continue,Button,Click,Click,1701556717153,undefined,undefined,undefined,14,시장에서 엄마가 당근과 감자를 샀다. 그 재료들로 엄마가 카레를 만들었다.,y,NULL
1701557144,cc419ef3be50fa98634436f8a3daf74d,PennController,48,0,filler,NULL,filler,__Trial__,__Event__,__End__,1701556717155,undefined,undefined,undefined,14,시장에서 엄마가 당근과 감자를 샀다. 그 재료들로 엄마가 카레를 만들었다.,y,NULL
1701557144,cc419ef3be50fa98634436f8a3daf74d,PennController,46,0,filler,NULL,filler,__Trial__,__Event__,__Start__,1701556717156,undefined,undefined,undefined,12,작업실에서 작가가 소설을 쓰며 밤을 지새웠다. 그 소설은 올해 베스트 셀러로 선정 되었다.,y,NULL
1701557144,cc419ef3be50fa98634436f8a3daf74d,PennController,46,0,filler,NULL,filler,__Header__,__Event__,__Start__,1701556717156,undefined,undefined,undefined,12,작업실에서 작가가 소설을 쓰며 밤을 지새웠다. 그 소설은 올해 베스트 셀러로 선정 되었다.,y,NULL
1701557144,cc419ef3be50fa98634436f8a3daf74d,PennController,46,0,filler,NULL,filler,__Header__,__Event__,__End__,1701556717157,undefined,undefined,undefined,12,작업실에서 작가가 소설을 쓰며 밤을 지새웠다. 그 소설은 올해 베스트 셀러로 선정 되었다.,y,NULL
1701557144,cc419ef3be50fa98634436f8a3daf74d,PennController,46,0,filler,NULL,acceptability,Scale,Select,7,1701556731520,undefined,undefined,undefined,12,작업실에서 작가가 소설을 쓰며 밤을 지새웠다. 그 소설은 올해 베스트 셀러로 선정 되었다.,y,NULL
1701557144,cc419ef3be50fa98634436f8a3daf74d,PennController,46,0,filler,NULL,continue,Button,Click,Click,1701556732924,undefined,undefined,undefined,12,작업실에서 작가가 소설을 쓰며 밤을 지새웠다. 그 소설은 올해 베스트 셀러로 선정 되었다.,y,NULL
1701557144,cc419ef3be50fa98634436f8a3daf74d,PennController,46,0,filler,NULL,filler,__Trial__,__Event__,__End__,1701556732926,undefined,undefined,undefined,12,작업실에서 작가가 소설을 쓰며 밤을 지새웠다. 그 소설은 올해 베스트 셀러로 선정 되었다.,y,NULL
# 16. target_group.
# 17. target_set.
# 18. target_condition.
# 19. target_sentence.
# 20. target_word_order.
# 21. target_interpretation.
# 22. target_existential.
# 23. Comments.
1701557144,cc419ef3be50fa98634436f8a3daf74d,PennController,31,0,experiment,NULL,experiment,__Trial__,__Event__,__Start__,1701556732927,undefined,undefined,undefined,1,21,uni-exi_surf,사육장에서 모든 물개가 누군가를 기다렸다. 그 사람들은 얼린 정어리를 먹이로 가지고 왔다.,uni-exi,surface,nwukwunka,NULL
1701557144,cc419ef3be50fa98634436f8a3daf74d,PennController,31,0,experiment,NULL,experiment,__Header__,__Event__,__Start__,1701556732927,undefined,undefined,undefined,1,21,uni-exi_surf,사육장에서 모든 물개가 누군가를 기다렸다. 그 사람들은 얼린 정어리를 먹이로 가지고 왔다.,uni-exi,surface,nwukwunka,NULL
1701557144,cc419ef3be50fa98634436f8a3daf74d,PennController,31,0,experiment,NULL,experiment,__Header__,__Event__,__End__,1701556732929,undefined,undefined,undefined,1,21,uni-exi_surf,사육장에서 모든 물개가 누군가를 기다렸다. 그 사람들은 얼린 정어리를 먹이로 가지고 왔다.,uni-exi,surface,nwukwunka,NULL
1701557144,cc419ef3be50fa98634436f8a3daf74d,PennController,31,0,experiment,NULL,acceptability,Scale,Select,1,1701556744628,undefined,undefined,undefined,1,21,uni-exi_surf,사육장에서 모든 물개가 누군가를 기다렸다. 그 사람들은 얼린 정어리를 먹이로 가지고 왔다.,uni-exi,surface,nwukwunka,NULL
1701557144,cc419ef3be50fa98634436f8a3daf74d,PennController,31,0,experiment,NULL,continue,Button,Click,Click,1701556746346,undefined,undefined,undefined,1,21,uni-exi_surf,사육장에서 모든 물개가 누군가를 기다렸다. 그 사람들은 얼린 정어리를 먹이로 가지고 왔다.,uni-exi,surface,nwukwunka,NULL
1701557144,cc419ef3be50fa98634436f8a3daf74d,PennController,31,0,experiment,NULL,experiment,__Trial__,__Event__,__End__,1701556746348,undefined,undefined,undefined,1,21,uni-exi_surf,사육장에서 모든 물개가 누군가를 기다렸다. 그 사람들은 얼린 정어리를 먹이로 가지고 왔다.,uni-exi,surface,nwukwunka,NULL
# 16. filler_number.
# 17. filler_sentence.
# 18. filler_felicitous.
# 19. Comments.
1701557144,cc419ef3be50fa98634436f8a3daf74d,PennController,75,0,filler,NULL,filler,__Trial__,__Event__,__Start__,1701556746349,undefined,undefined,undefined,41,동물원에서 캥거루가 묘기를 부렸다. 그 코알라는 관람객들에게 인기가 많았다.,n,NULL
1701557144,cc419ef3be50fa98634436f8a3daf74d,PennController,75,0,filler,NULL,filler,__Header__,__Event__,__Start__,1701556746349,undefined,undefined,undefined,41,동물원에서 캥거루가 묘기를 부렸다. 그 코알라는 관람객들에게 인기가 많았다.,n,NULL
1701557144,cc419ef3be50fa98634436f8a3daf74d,PennController,75,0,filler,NULL,filler,__Header__,__Event__,__End__,1701556746350,undefined,undefined,undefined,41,동물원에서 캥거루가 묘기를 부렸다. 그 코알라는 관람객들에게 인기가 많았다.,n,NULL
1701557144,cc419ef3be50fa98634436f8a3daf74d,PennController,75,0,filler,NULL,acceptability,Scale,Select,1,1701556753698,undefined,undefined,undefined,41,동물원에서 캥거루가 묘기를 부렸다. 그 코알라는 관람객들에게 인기가 많았다.,n,NULL
1701557144,cc419ef3be50fa98634436f8a3daf74d,PennController,75,0,filler,NULL,continue,Button,Click,Click,1701556754564,undefined,undefined,undefined,41,동물원에서 캥거루가 묘기를 부렸다. 그 코알라는 관람객들에게 인기가 많았다.,n,NULL
1701557144,cc419ef3be50fa98634436f8a3daf74d,PennController,75,0,filler,NULL,filler,__Trial__,__Event__,__End__,1701556754565,undefined,undefined,undefined,41,동물원에서 캥거루가 묘기를 부렸다. 그 코알라는 관람객들에게 인기가 많았다.,n,NULL
1701557144,cc419ef3be50fa98634436f8a3daf74d,PennController,79,0,filler,NULL,filler,__Trial__,__Event__,__Start__,1701556754565,undefined,undefined,undefined,45,편의점에서 고등학생들이 컵라면을 훔쳤다. 그 학생들은 돈을 내고 컵라면을 샀다.,n,NULL
1701557144,cc419ef3be50fa98634436f8a3daf74d,PennController,79,0,filler,NULL,filler,__Header__,__Event__,__Start__,1701556754565,undefined,undefined,undefined,45,편의점에서 고등학생들이 컵라면을 훔쳤다. 그 학생들은 돈을 내고 컵라면을 샀다.,n,NULL
1701557144,cc419ef3be50fa98634436f8a3daf74d,PennController,79,0,filler,NULL,filler,__Header__,__Event__,__End__,1701556754566,undefined,undefined,undefined,45,편의점에서 고등학생들이 컵라면을 훔쳤다. 그 학생들은 돈을 내고 컵라면을 샀다.,n,NULL
1701557144,cc419ef3be50fa98634436f8a3daf74d,PennController,79,0,filler,NULL,acceptability,Scale,Select,1,1701556770012,undefined,undefined,undefined,45,편의점에서 고등학생들이 컵라면을 훔쳤다. 그 학생들은 돈을 내고 컵라면을 샀다.,n,NULL
1701557144,cc419ef3be50fa98634436f8a3daf74d,PennController,79,0,filler,NULL,continue,Button,Click,Click,1701556771154,undefined,undefined,undefined,45,편의점에서 고등학생들이 컵라면을 훔쳤다. 그 학생들은 돈을 내고 컵라면을 샀다.,n,NULL
1701557144,cc419ef3be50fa98634436f8a3daf74d,PennController,79,0,filler,NULL,filler,__Trial__,__Event__,__End__,1701556771156,undefined,undefined,undefined,45,편의점에서 고등학생들이 컵라면을 훔쳤다. 그 학생들은 돈을 내고 컵라면을 샀다.,n,NULL
# 16. target_group.
# 17. target_set.
# 18. target_condition.
# 19. target_sentence.
# 20. target_word_order.
# 21. target_interpretation.
# 22. target_existential.
# 23. Comments.
1701557144,cc419ef3be50fa98634436f8a3daf74d,PennController,23,0,experiment,NULL,experiment,__Trial__,__Event__,__Start__,1701556771158,undefined,undefined,undefined,1,13,uni-exi_surf,평원에서 모든 미어캣이 누군가를 살펴보았다. 그 사람들은 다큐멘터리를 찍으러 온 감독들이었다.,uni-exi,surface,nwukwunka,NULL
1701557144,cc419ef3be50fa98634436f8a3daf74d,PennController,23,0,experiment,NULL,experiment,__Header__,__Event__,__Start__,1701556771158,undefined,undefined,undefined,1,13,uni-exi_surf,평원에서 모든 미어캣이 누군가를 살펴보았다. 그 사람들은 다큐멘터리를 찍으러 온 감독들이었다.,uni-exi,surface,nwukwunka,NULL
1701557144,cc419ef3be50fa98634436f8a3daf74d,PennController,23,0,experiment,NULL,experiment,__Header__,__Event__,__End__,1701556771160,undefined,undefined,undefined,1,13,uni-exi_surf,평원에서 모든 미어캣이 누군가를 살펴보았다. 그 사람들은 다큐멘터리를 찍으러 온 감독들이었다.,uni-exi,surface,nwukwunka,NULL
1701557144,cc419ef3be50fa98634436f8a3daf74d,PennController,23,0,experiment,NULL,acceptability,Scale,Select,5,1701556841674,undefined,undefined,undefined,1,13,uni-exi_surf,평원에서 모든 미어캣이 누군가를 살펴보았다. 그 사람들은 다큐멘터리를 찍으러 온 감독들이었다.,uni-exi,surface,nwukwunka,NULL
1701557144,cc419ef3be50fa98634436f8a3daf74d,PennController,23,0,experiment,NULL,continue,Button,Click,Click,1701556850335,undefined,undefined,undefined,1,13,uni-exi_surf,평원에서 모든 미어캣이 누군가를 살펴보았다. 그 사람들은 다큐멘터리를 찍으러 온 감독들이었다.,uni-exi,surface,nwukwunka,NULL
1701557144,cc419ef3be50fa98634436f8a3daf74d,PennController,23,0,experiment,NULL,experiment,__Trial__,__Event__,__End__,1701556850337,undefined,undefined,undefined,1,13,uni-exi_surf,평원에서 모든 미어캣이 누군가를 살펴보았다. 그 사람들은 다큐멘터리를 찍으러 온 감독들이었다.,uni-exi,surface,nwukwunka,NULL
# 16. filler_number.
# 17. filler_sentence.
# 18. filler_felicitous.
# 19. Comments.
1701557144,cc419ef3be50fa98634436f8a3daf74d,PennController,44,0,filler,NULL,filler,__Trial__,__Event__,__Start__,1701556850339,undefined,undefined,undefined,10,아파트단지에서 주인이 강아지를 산책시켰다. 그 강아지는 밖에서만 소변을 보기 때문이다.,y,NULL
1701557144,cc419ef3be50fa98634436f8a3daf74d,PennController,44,0,filler,NULL,filler,__Header__,__Event__,__Start__,1701556850339,undefined,undefined,undefined,10,아파트단지에서 주인이 강아지를 산책시켰다. 그 강아지는 밖에서만 소변을 보기 때문이다.,y,NULL
1701557144,cc419ef3be50fa98634436f8a3daf74d,PennController,44,0,filler,NULL,filler,__Header__,__Event__,__End__,1701556850341,undefined,undefined,undefined,10,아파트단지에서 주인이 강아지를 산책시켰다. 그 강아지는 밖에서만 소변을 보기 때문이다.,y,NULL
1701557144,cc419ef3be50fa98634436f8a3daf74d,PennController,44,0,filler,NULL,acceptability,Scale,Select,7,1701556860488,undefined,undefined,undefined,10,아파트단지에서 주인이 강아지를 산책시켰다. 그 강아지는 밖에서만 소변을 보기 때문이다.,y,NULL
1701557144,cc419ef3be50fa98634436f8a3daf74d,PennController,44,0,filler,NULL,continue,Button,Click,Click,1701556865834,undefined,undefined,undefined,10,아파트단지에서 주인이 강아지를 산책시켰다. 그 강아지는 밖에서만 소변을 보기 때문이다.,y,NULL
1701557144,cc419ef3be50fa98634436f8a3daf74d,PennController,44,0,filler,NULL,filler,__Trial__,__Event__,__End__,1701556865835,undefined,undefined,undefined,10,아파트단지에서 주인이 강아지를 산책시켰다. 그 강아지는 밖에서만 소변을 보기 때문이다.,y,NULL
1701557144,cc419ef3be50fa98634436f8a3daf74d,PennController,37,0,filler,NULL,filler,__Trial__,__Event__,__Start__,1701556865837,undefined,undefined,undefined,3,놀이터에서 아이들이 술래잡기를 했다. 그 중 키가 제일 큰 아이가 넘어져 무릎이 까졌다. ,y,NULL
1701557144,cc419ef3be50fa98634436f8a3daf74d,PennController,37,0,filler,NULL,filler,__Header__,__Event__,__Start__,1701556865837,undefined,undefined,undefined,3,놀이터에서 아이들이 술래잡기를 했다. 그 중 키가 제일 큰 아이가 넘어져 무릎이 까졌다. ,y,NULL
1701557144,cc419ef3be50fa98634436f8a3daf74d,PennController,37,0,filler,NULL,filler,__Header__,__Event__,__End__,1701556865839,undefined,undefined,undefined,3,놀이터에서 아이들이 술래잡기를 했다. 그 중 키가 제일 큰 아이가 넘어져 무릎이 까졌다. ,y,NULL
1701557144,cc419ef3be50fa98634436f8a3daf74d,PennController,37,0,filler,NULL,acceptability,Scale,Select,7,1701556875182,undefined,undefined,undefined,3,놀이터에서 아이들이 술래잡기를 했다. 그 중 키가 제일 큰 아이가 넘어져 무릎이 까졌다. ,y,NULL
1701557144,cc419ef3be50fa98634436f8a3daf74d,PennController,37,0,filler,NULL,continue,Button,Click,Click,1701556876150,undefined,undefined,undefined,3,놀이터에서 아이들이 술래잡기를 했다. 그 중 키가 제일 큰 아이가 넘어져 무릎이 까졌다. ,y,NULL
1701557144,cc419ef3be50fa98634436f8a3daf74d,PennController,37,0,filler,NULL,filler,__Trial__,__Event__,__End__,1701556876152,undefined,undefined,undefined,3,놀이터에서 아이들이 술래잡기를 했다. 그 중 키가 제일 큰 아이가 넘어져 무릎이 까졌다. ,y,NULL
# 16. target_group.
# 17. target_set.
# 18. target_condition.
# 19. target_sentence.
# 20. target_word_order.
# 21. target_interpretation.
# 22. target_existential.
# 23. Comments.
1701557144,cc419ef3be50fa98634436f8a3daf74d,PennController,33,0,experiment,NULL,experiment,__Trial__,__Event__,__Start__,1701556876154,undefined,undefined,undefined,1,23,exi-uni_surf,바닷가에서 누군가가 모든 돌고래를 구했다. 그 사람은 다친 해양 동물을 치료하는 의사이다.,exi-uni,surface,nwukwunka,NULL
1701557144,cc419ef3be50fa98634436f8a3daf74d,PennController,33,0,experiment,NULL,experiment,__Header__,__Event__,__Start__,1701556876154,undefined,undefined,undefined,1,23,exi-uni_surf,바닷가에서 누군가가 모든 돌고래를 구했다. 그 사람은 다친 해양 동물을 치료하는 의사이다.,exi-uni,surface,nwukwunka,NULL
1701557144,cc419ef3be50fa98634436f8a3daf74d,PennController,33,0,experiment,NULL,experiment,__Header__,__Event__,__End__,1701556876155,undefined,undefined,undefined,1,23,exi-uni_surf,바닷가에서 누군가가 모든 돌고래를 구했다. 그 사람은 다친 해양 동물을 치료하는 의사이다.,exi-uni,surface,nwukwunka,NULL
1701557144,cc419ef3be50fa98634436f8a3daf74d,PennController,33,0,experiment,NULL,acceptability,Scale,Select,7,1701556887075,undefined,undefined,undefined,1,23,exi-uni_surf,바닷가에서 누군가가 모든 돌고래를 구했다. 그 사람은 다친 해양 동물을 치료하는 의사이다.,exi-uni,surface,nwukwunka,NULL
1701557144,cc419ef3be50fa98634436f8a3daf74d,PennController,33,0,experiment,NULL,continue,Button,Click,Click,1701556887859,undefined,undefined,undefined,1,23,exi-uni_surf,바닷가에서 누군가가 모든 돌고래를 구했다. 그 사람은 다친 해양 동물을 치료하는 의사이다.,exi-uni,surface,nwukwunka,NULL
1701557144,cc419ef3be50fa98634436f8a3daf74d,PennController,33,0,experiment,NULL,experiment,__Trial__,__Event__,__End__,1701556887860,undefined,undefined,undefined,1,23,exi-uni_surf,바닷가에서 누군가가 모든 돌고래를 구했다. 그 사람은 다친 해양 동물을 치료하는 의사이다.,exi-uni,surface,nwukwunka,NULL
# 16. filler_number.
# 17. filler_sentence.
# 18. filler_felicitous.
# 19. Comments.
1701557144,cc419ef3be50fa98634436f8a3daf74d,PennController,71,0,filler,NULL,filler,__Trial__,__Event__,__Start__,1701556887862,undefined,undefined,undefined,37,연극 도중 무대 조명이 고장났다. 그 마이크는 작년에도 여러번 고장이 났었다.,n,NULL
1701557144,cc419ef3be50fa98634436f8a3daf74d,PennController,71,0,filler,NULL,filler,__Header__,__Event__,__Start__,1701556887862,undefined,undefined,undefined,37,연극 도중 무대 조명이 고장났다. 그 마이크는 작년에도 여러번 고장이 났었다.,n,NULL
1701557144,cc419ef3be50fa98634436f8a3daf74d,PennController,71,0,filler,NULL,filler,__Header__,__Event__,__End__,1701556887863,undefined,undefined,undefined,37,연극 도중 무대 조명이 고장났다. 그 마이크는 작년에도 여러번 고장이 났었다.,n,NULL
1701557144,cc419ef3be50fa98634436f8a3daf74d,PennController,71,0,filler,NULL,acceptability,Scale,Select,1,1701556895231,undefined,undefined,undefined,37,연극 도중 무대 조명이 고장났다. 그 마이크는 작년에도 여러번 고장이 났었다.,n,NULL
1701557144,cc419ef3be50fa98634436f8a3daf74d,PennController,71,0,filler,NULL,continue,Button,Click,Click,1701556896015,undefined,undefined,undefined,37,연극 도중 무대 조명이 고장났다. 그 마이크는 작년에도 여러번 고장이 났었다.,n,NULL
1701557144,cc419ef3be50fa98634436f8a3daf74d,PennController,71,0,filler,NULL,filler,__Trial__,__Event__,__End__,1701556896017,undefined,undefined,undefined,37,연극 도중 무대 조명이 고장났다. 그 마이크는 작년에도 여러번 고장이 났었다.,n,NULL
1701557144,cc419ef3be50fa98634436f8a3daf74d,PennController,76,0,filler,NULL,filler,__Trial__,__Event__,__Start__,1701556896018,undefined,undefined,undefined,42,이비인후과에서 의사가 진료를 보았다. 그 약사는 서울대학교를 졸업했다.,n,NULL
1701557144,cc419ef3be50fa98634436f8a3daf74d,PennController,76,0,filler,NULL,filler,__Header__,__Event__,__Start__,1701556896018,undefined,undefined,undefined,42,이비인후과에서 의사가 진료를 보았다. 그 약사는 서울대학교를 졸업했다.,n,NULL
1701557144,cc419ef3be50fa98634436f8a3daf74d,PennController,76,0,filler,NULL,filler,__Header__,__Event__,__End__,1701556896020,undefined,undefined,undefined,42,이비인후과에서 의사가 진료를 보았다. 그 약사는 서울대학교를 졸업했다.,n,NULL
1701557144,cc419ef3be50fa98634436f8a3daf74d,PennController,76,0,filler,NULL,acceptability,Scale,Select,1,1701556900731,undefined,undefined,undefined,42,이비인후과에서 의사가 진료를 보았다. 그 약사는 서울대학교를 졸업했다.,n,NULL
1701557144,cc419ef3be50fa98634436f8a3daf74d,PennController,76,0,filler,NULL,continue,Button,Click,Click,1701556901466,undefined,undefined,undefined,42,이비인후과에서 의사가 진료를 보았다. 그 약사는 서울대학교를 졸업했다.,n,NULL
1701557144,cc419ef3be50fa98634436f8a3daf74d,PennController,76,0,filler,NULL,filler,__Trial__,__Event__,__End__,1701556901467,undefined,undefined,undefined,42,이비인후과에서 의사가 진료를 보았다. 그 약사는 서울대학교를 졸업했다.,n,NULL
# 16. target_group.
# 17. target_set.
# 18. target_condition.
# 19. target_sentence.
# 20. target_word_order.
# 21. target_interpretation.
# 22. target_existential.
# 23. Comments.
1701557144,cc419ef3be50fa98634436f8a3daf74d,PennController,32,0,experiment,NULL,experiment,__Trial__,__Event__,__Start__,1701556901469,undefined,undefined,undefined,1,22,exi-uni_inv,오밤중에 누군가가 모든 강아지를 내쫓았다. 그 사람들은 이미 동물 학대 전과를 가지고 있었다.,exi-uni,inverse,nwukwunka,NULL
1701557144,cc419ef3be50fa98634436f8a3daf74d,PennController,32,0,experiment,NULL,experiment,__Header__,__Event__,__Start__,1701556901469,undefined,undefined,undefined,1,22,exi-uni_inv,오밤중에 누군가가 모든 강아지를 내쫓았다. 그 사람들은 이미 동물 학대 전과를 가지고 있었다.,exi-uni,inverse,nwukwunka,NULL
1701557144,cc419ef3be50fa98634436f8a3daf74d,PennController,32,0,experiment,NULL,experiment,__Header__,__Event__,__End__,1701556901470,undefined,undefined,undefined,1,22,exi-uni_inv,오밤중에 누군가가 모든 강아지를 내쫓았다. 그 사람들은 이미 동물 학대 전과를 가지고 있었다.,exi-uni,inverse,nwukwunka,NULL
1701557144,cc419ef3be50fa98634436f8a3daf74d,PennController,32,0,experiment,NULL,acceptability,Scale,Select,2,1701556924858,undefined,undefined,undefined,1,22,exi-uni_inv,오밤중에 누군가가 모든 강아지를 내쫓았다. 그 사람들은 이미 동물 학대 전과를 가지고 있었다.,exi-uni,inverse,nwukwunka,NULL
1701557144,cc419ef3be50fa98634436f8a3daf74d,PennController,32,0,experiment,NULL,continue,Button,Click,Click,1701556926292,undefined,undefined,undefined,1,22,exi-uni_inv,오밤중에 누군가가 모든 강아지를 내쫓았다. 그 사람들은 이미 동물 학대 전과를 가지고 있었다.,exi-uni,inverse,nwukwunka,NULL
1701557144,cc419ef3be50fa98634436f8a3daf74d,PennController,32,0,experiment,NULL,experiment,__Trial__,__Event__,__End__,1701556926294,undefined,undefined,undefined,1,22,exi-uni_inv,오밤중에 누군가가 모든 강아지를 내쫓았다. 그 사람들은 이미 동물 학대 전과를 가지고 있었다.,exi-uni,inverse,nwukwunka,NULL
# 16. filler_number.
# 17. filler_sentence.
# 18. filler_felicitous.
# 19. Comments.
1701557144,cc419ef3be50fa98634436f8a3daf74d,PennController,61,0,filler,NULL,filler,__Trial__,__Event__,__Start__,1701556926295,undefined,undefined,undefined,27,박물관에서 학예사가 유물들을 정리했다. 그 학교는 고고학 전공이 유명하다.,n,NULL
1701557144,cc419ef3be50fa98634436f8a3daf74d,PennController,61,0,filler,NULL,filler,__Header__,__Event__,__Start__,1701556926296,undefined,undefined,undefined,27,박물관에서 학예사가 유물들을 정리했다. 그 학교는 고고학 전공이 유명하다.,n,NULL
1701557144,cc419ef3be50fa98634436f8a3daf74d,PennController,61,0,filler,NULL,filler,__Header__,__Event__,__End__,1701556926297,undefined,undefined,undefined,27,박물관에서 학예사가 유물들을 정리했다. 그 학교는 고고학 전공이 유명하다.,n,NULL
1701557144,cc419ef3be50fa98634436f8a3daf74d,PennController,61,0,filler,NULL,acceptability,Scale,Select,1,1701556943164,undefined,undefined,undefined,27,박물관에서 학예사가 유물들을 정리했다. 그 학교는 고고학 전공이 유명하다.,n,NULL
1701557144,cc419ef3be50fa98634436f8a3daf74d,PennController,61,0,filler,NULL,continue,Button,Click,Click,1701556943915,undefined,undefined,undefined,27,박물관에서 학예사가 유물들을 정리했다. 그 학교는 고고학 전공이 유명하다.,n,NULL
1701557144,cc419ef3be50fa98634436f8a3daf74d,PennController,61,0,filler,NULL,filler,__Trial__,__Event__,__End__,1701556943917,undefined,undefined,undefined,27,박물관에서 학예사가 유물들을 정리했다. 그 학교는 고고학 전공이 유명하다.,n,NULL
1701557144,cc419ef3be50fa98634436f8a3daf74d,PennController,49,0,filler,NULL,filler,__Trial__,__Event__,__Start__,1701556943921,undefined,undefined,undefined,15,콘서트에서 들은 노래가 귓가에 맴돌았다. 그 노래가 엄마의 18번이기 때문이다.,y,NULL
1701557144,cc419ef3be50fa98634436f8a3daf74d,PennController,49,0,filler,NULL,filler,__Header__,__Event__,__Start__,1701556943921,undefined,undefined,undefined,15,콘서트에서 들은 노래가 귓가에 맴돌았다. 그 노래가 엄마의 18번이기 때문이다.,y,NULL
1701557144,cc419ef3be50fa98634436f8a3daf74d,PennController,49,0,filler,NULL,filler,__Header__,__Event__,__End__,1701556943924,undefined,undefined,undefined,15,콘서트에서 들은 노래가 귓가에 맴돌았다. 그 노래가 엄마의 18번이기 때문이다.,y,NULL
1701557144,cc419ef3be50fa98634436f8a3daf74d,PennController,49,0,filler,NULL,acceptability,Scale,Select,7,1701556952899,undefined,undefined,undefined,15,콘서트에서 들은 노래가 귓가에 맴돌았다. 그 노래가 엄마의 18번이기 때문이다.,y,NULL
1701557144,cc419ef3be50fa98634436f8a3daf74d,PennController,49,0,filler,NULL,continue,Button,Click,Click,1701556954252,undefined,undefined,undefined,15,콘서트에서 들은 노래가 귓가에 맴돌았다. 그 노래가 엄마의 18번이기 때문이다.,y,NULL
1701557144,cc419ef3be50fa98634436f8a3daf74d,PennController,49,0,filler,NULL,filler,__Trial__,__Event__,__End__,1701556954254,undefined,undefined,undefined,15,콘서트에서 들은 노래가 귓가에 맴돌았다. 그 노래가 엄마의 18번이기 때문이다.,y,NULL
# 16. target_group.
# 17. target_set.
# 18. target_condition.
# 19. target_sentence.
# 20. target_word_order.
# 21. target_interpretation.
# 22. target_existential.
# 23. Comments.
1701557144,cc419ef3be50fa98634436f8a3daf74d,PennController,22,0,experiment,NULL,experiment,__Trial__,__Event__,__Start__,1701556954257,undefined,undefined,undefined,1,12,uni-exi_inv,요양원에서 모든 간병인이 어떤 노인을 보살폈다. 그 노인은 거동이 불편해 휠체어를 사용한다.,uni-exi,inverse,etten,NULL
1701557144,cc419ef3be50fa98634436f8a3daf74d,PennController,22,0,experiment,NULL,experiment,__Header__,__Event__,__Start__,1701556954257,undefined,undefined,undefined,1,12,uni-exi_inv,요양원에서 모든 간병인이 어떤 노인을 보살폈다. 그 노인은 거동이 불편해 휠체어를 사용한다.,uni-exi,inverse,etten,NULL
1701557144,cc419ef3be50fa98634436f8a3daf74d,PennController,22,0,experiment,NULL,experiment,__Header__,__Event__,__End__,1701556954259,undefined,undefined,undefined,1,12,uni-exi_inv,요양원에서 모든 간병인이 어떤 노인을 보살폈다. 그 노인은 거동이 불편해 휠체어를 사용한다.,uni-exi,inverse,etten,NULL
1701557144,cc419ef3be50fa98634436f8a3daf74d,PennController,22,0,experiment,NULL,acceptability,Scale,Select,7,1701556983949,undefined,undefined,undefined,1,12,uni-exi_inv,요양원에서 모든 간병인이 어떤 노인을 보살폈다. 그 노인은 거동이 불편해 휠체어를 사용한다.,uni-exi,inverse,etten,NULL
1701557144,cc419ef3be50fa98634436f8a3daf74d,PennController,22,0,experiment,NULL,continue,Button,Click,Click,1701556984817,undefined,undefined,undefined,1,12,uni-exi_inv,요양원에서 모든 간병인이 어떤 노인을 보살폈다. 그 노인은 거동이 불편해 휠체어를 사용한다.,uni-exi,inverse,etten,NULL
1701557144,cc419ef3be50fa98634436f8a3daf74d,PennController,22,0,experiment,NULL,experiment,__Trial__,__Event__,__End__,1701556984819,undefined,undefined,undefined,1,12,uni-exi_inv,요양원에서 모든 간병인이 어떤 노인을 보살폈다. 그 노인은 거동이 불편해 휠체어를 사용한다.,uni-exi,inverse,etten,NULL
# 16. filler_number.
# 17. filler_sentence.
# 18. filler_felicitous.
# 19. Comments.
1701557144,cc419ef3be50fa98634436f8a3daf74d,PennController,41,0,filler,NULL,filler,__Trial__,__Event__,__Start__,1701556984823,undefined,undefined,undefined,7,포장마차에서 친구들과 술 한잔을 했다. 그 친구들은 나와 10년지기이다.,y,NULL
1701557144,cc419ef3be50fa98634436f8a3daf74d,PennController,41,0,filler,NULL,filler,__Header__,__Event__,__Start__,1701556984823,undefined,undefined,undefined,7,포장마차에서 친구들과 술 한잔을 했다. 그 친구들은 나와 10년지기이다.,y,NULL
1701557144,cc419ef3be50fa98634436f8a3daf74d,PennController,41,0,filler,NULL,filler,__Header__,__Event__,__End__,1701556984825,undefined,undefined,undefined,7,포장마차에서 친구들과 술 한잔을 했다. 그 친구들은 나와 10년지기이다.,y,NULL
1701557144,cc419ef3be50fa98634436f8a3daf74d,PennController,41,0,filler,NULL,acceptability,Scale,Select,7,1701556995659,undefined,undefined,undefined,7,포장마차에서 친구들과 술 한잔을 했다. 그 친구들은 나와 10년지기이다.,y,NULL
1701557144,cc419ef3be50fa98634436f8a3daf74d,PennController,41,0,filler,NULL,continue,Button,Click,Click,1701556997009,undefined,undefined,undefined,7,포장마차에서 친구들과 술 한잔을 했다. 그 친구들은 나와 10년지기이다.,y,NULL
1701557144,cc419ef3be50fa98634436f8a3daf74d,PennController,41,0,filler,NULL,filler,__Trial__,__Event__,__End__,1701556997012,undefined,undefined,undefined,7,포장마차에서 친구들과 술 한잔을 했다. 그 친구들은 나와 10년지기이다.,y,NULL
1701557144,cc419ef3be50fa98634436f8a3daf74d,PennController,52,0,filler,NULL,filler,__Trial__,__Event__,__Start__,1701556997014,undefined,undefined,undefined,18,빨래방에서 엄마가 이웃집 아줌마를 만났다. 그 아줌마는 정말 수다스러웠다.,y,NULL
1701557144,cc419ef3be50fa98634436f8a3daf74d,PennController,52,0,filler,NULL,filler,__Header__,__Event__,__Start__,1701556997015,undefined,undefined,undefined,18,빨래방에서 엄마가 이웃집 아줌마를 만났다. 그 아줌마는 정말 수다스러웠다.,y,NULL
1701557144,cc419ef3be50fa98634436f8a3daf74d,PennController,52,0,filler,NULL,filler,__Header__,__Event__,__End__,1701556997017,undefined,undefined,undefined,18,빨래방에서 엄마가 이웃집 아줌마를 만났다. 그 아줌마는 정말 수다스러웠다.,y,NULL
1701557144,cc419ef3be50fa98634436f8a3daf74d,PennController,52,0,filler,NULL,acceptability,Scale,Select,7,1701557002646,undefined,undefined,undefined,18,빨래방에서 엄마가 이웃집 아줌마를 만났다. 그 아줌마는 정말 수다스러웠다.,y,NULL
1701557144,cc419ef3be50fa98634436f8a3daf74d,PennController,52,0,filler,NULL,continue,Button,Click,Click,1701557004515,undefined,undefined,undefined,18,빨래방에서 엄마가 이웃집 아줌마를 만났다. 그 아줌마는 정말 수다스러웠다.,y,NULL
1701557144,cc419ef3be50fa98634436f8a3daf74d,PennController,52,0,filler,NULL,filler,__Trial__,__Event__,__End__,1701557004516,undefined,undefined,undefined,18,빨래방에서 엄마가 이웃집 아줌마를 만났다. 그 아줌마는 정말 수다스러웠다.,y,NULL
# 16. target_group.
# 17. target_set.
# 18. target_condition.
# 19. target_sentence.
# 20. target_word_order.
# 21. target_interpretation.
# 22. target_existential.
# 23. Comments.
1701557144,cc419ef3be50fa98634436f8a3daf74d,PennController,25,0,experiment,NULL,experiment,__Trial__,__Event__,__Start__,1701557004518,undefined,undefined,undefined,1,15,exi-uni_surf,길거리에서 누군가가 모든 고양이를 따라갔다. 인적이 드문 곳에 도착하자 그 사람은  먹이를 놓고 사라졌다.,exi-uni,surface,nwukwunka,NULL
1701557144,cc419ef3be50fa98634436f8a3daf74d,PennController,25,0,experiment,NULL,experiment,__Header__,__Event__,__Start__,1701557004518,undefined,undefined,undefined,1,15,exi-uni_surf,길거리에서 누군가가 모든 고양이를 따라갔다. 인적이 드문 곳에 도착하자 그 사람은  먹이를 놓고 사라졌다.,exi-uni,surface,nwukwunka,NULL
1701557144,cc419ef3be50fa98634436f8a3daf74d,PennController,25,0,experiment,NULL,experiment,__Header__,__Event__,__End__,1701557004520,undefined,undefined,undefined,1,15,exi-uni_surf,길거리에서 누군가가 모든 고양이를 따라갔다. 인적이 드문 곳에 도착하자 그 사람은  먹이를 놓고 사라졌다.,exi-uni,surface,nwukwunka,NULL
1701557144,cc419ef3be50fa98634436f8a3daf74d,PennController,25,0,experiment,NULL,acceptability,Scale,Select,7,1701557036518,undefined,undefined,undefined,1,15,exi-uni_surf,길거리에서 누군가가 모든 고양이를 따라갔다. 인적이 드문 곳에 도착하자 그 사람은  먹이를 놓고 사라졌다.,exi-uni,surface,nwukwunka,NULL
1701557144,cc419ef3be50fa98634436f8a3daf74d,PennController,25,0,experiment,NULL,continue,Button,Click,Click,1701557037336,undefined,undefined,undefined,1,15,exi-uni_surf,길거리에서 누군가가 모든 고양이를 따라갔다. 인적이 드문 곳에 도착하자 그 사람은  먹이를 놓고 사라졌다.,exi-uni,surface,nwukwunka,NULL
1701557144,cc419ef3be50fa98634436f8a3daf74d,PennController,25,0,experiment,NULL,experiment,__Trial__,__Event__,__End__,1701557037338,undefined,undefined,undefined,1,15,exi-uni_surf,길거리에서 누군가가 모든 고양이를 따라갔다. 인적이 드문 곳에 도착하자 그 사람은  먹이를 놓고 사라졌다.,exi-uni,surface,nwukwunka,NULL
# 16. filler_number.
# 17. filler_sentence.
# 18. filler_felicitous.
# 19. Comments.
1701557144,cc419ef3be50fa98634436f8a3daf74d,PennController,70,0,filler,NULL,filler,__Trial__,__Event__,__Start__,1701557037339,undefined,undefined,undefined,36,카페에서 친구가 라떼를 사주었다. 그 직원이 커피를 정말 맛있게 내린다.,n,NULL
1701557144,cc419ef3be50fa98634436f8a3daf74d,PennController,70,0,filler,NULL,filler,__Header__,__Event__,__Start__,1701557037339,undefined,undefined,undefined,36,카페에서 친구가 라떼를 사주었다. 그 직원이 커피를 정말 맛있게 내린다.,n,NULL
1701557144,cc419ef3be50fa98634436f8a3daf74d,PennController,70,0,filler,NULL,filler,__Header__,__Event__,__End__,1701557037341,undefined,undefined,undefined,36,카페에서 친구가 라떼를 사주었다. 그 직원이 커피를 정말 맛있게 내린다.,n,NULL
1701557144,cc419ef3be50fa98634436f8a3daf74d,PennController,70,0,filler,NULL,acceptability,Scale,Select,1,1701557043902,undefined,undefined,undefined,36,카페에서 친구가 라떼를 사주었다. 그 직원이 커피를 정말 맛있게 내린다.,n,NULL
1701557144,cc419ef3be50fa98634436f8a3daf74d,PennController,70,0,filler,NULL,continue,Button,Click,Click,1701557044770,undefined,undefined,undefined,36,카페에서 친구가 라떼를 사주었다. 그 직원이 커피를 정말 맛있게 내린다.,n,NULL
1701557144,cc419ef3be50fa98634436f8a3daf74d,PennController,70,0,filler,NULL,filler,__Trial__,__Event__,__End__,1701557044772,undefined,undefined,undefined,36,카페에서 친구가 라떼를 사주었다. 그 직원이 커피를 정말 맛있게 내린다.,n,NULL
